acc_s001_004 Accelerometer Non-wakeup,STMicro,2025-03-06_18-50-19.416_TGW
imuTimestamp,accuracy(more=better),utcTimestamp(nanos),acc_x[m/s^2],acc_y[m/s^2],acc_z[m/s^2]
801748780,3,1741276222608197467,0.10348958,-9.7681,0.1794617
801748790,3,1741276222618238978,0.106480606,-9.757631,0.18364914
801748800,3,1741276222628279603,0.1055833,-9.760324,0.17497516
801748810,3,1741276222638321998,0.10139586,-9.767502,0.18424734
801748820,3,1741276222648363509,0.10707881,-9.769297,0.16749759
801748831,3,1741276222658405905,0.109471634,-9.771689,0.18305093
801748841,3,1741276222668447415,0.08644072,-9.7681,0.18095721
801748851,3,1741276222678468613,0.104087785,-9.7654085,0.16271193
801748861,3,1741276222688474446,0.115752794,-9.763314,0.18065812
801748871,3,1741276222698622363,0.1055833,-9.760324,0.1896312
801748881,3,1741276222708605540,0.11096715,-9.762118,0.19680966
801748891,3,1741276222718589707,0.09810573,-9.755538,0.19591236
801748901,3,1741276222728575228,0.1061815,-9.768997,0.180359
801748911,3,1741276222738559290,0.10857433,-9.755538,0.19651055
801748921,3,1741276222748544915,0.116650105,-9.759426,0.1902294
801748931,3,1741276222758529863,0.1160519,-9.763913,0.19262223
801748941,3,1741276222768515488,0.09720842,-9.762716,0.18514465
801748951,3,1741276222778500332,0.10079765,-9.764511,0.19172491
801748961,3,1741276222788485175,0.09212367,-9.7609215,0.18484555
801748971,3,1741276222798470123,0.10049855,-9.757631,0.19322042
801748981,3,1741276222808455748,0.102592275,-9.766904,0.18125631
801748991,3,1741276222818440592,0.10917253,-9.764811,0.18454644
801749001,3,1741276222828425540,0.095413804,-9.765707,0.18544376
801749011,3,1741276222838411165,0.10767702,-9.768399,0.20219351
801749020,3,1741276222848396009,0.10797612,-9.75494,0.1902294
801749030,3,1741276222858380853,0.10797612,-9.7681,0.1911267
801749040,3,1741276222868365800,0.10797612,-9.766904,0.19381863
801749050,3,1741276222878351425,0.097806625,-9.773185,0.1893321
801749060,3,1741276222888336269,0.101694964,-9.7681,0.1893321
801749070,3,1741276222898321009,0.115752794,-9.766306,0.19202402
801749080,3,1741276222908305123,0.104985096,-9.771689,0.19800608
801749090,3,1741276222918291530,0.109471634,-9.75165,0.19172491
801749100,3,1741276222928276373,0.10707881,-9.7609215,0.19142582
801749110,3,1741276222938261113,0.10289137,-9.769895,0.19950159
801749120,3,1741276222948245228,0.101694964,-9.76152,0.19920248
801749130,3,1741276222958231634,0.11694921,-9.766904,0.19680966
801749140,3,1741276222968216582,0.10707881,-9.766006,0.19800608
801749150,3,1741276222978202207,0.10737792,-9.760324,0.19591236
801749160,3,1741276222988187050,0.09571291,-9.75494,0.19471595
801749170,3,1741276222998171894,0.09840483,-9.764212,0.21026929
801749180,3,1741276223008156842,0.10857433,-9.765109,0.19381863
801749190,3,1741276223018142467,0.10049855,-9.764212,0.19351953
801749200,3,1741276223028127311,0.09990034,-9.764511,0.20638095
801749210,3,1741276223038112155,0.12023934,-9.756136,0.19322042
801749220,3,1741276223048097103,0.09990034,-9.75823,0.20129621
801749230,3,1741276223058082728,0.0951147,-9.761819,0.20309082
801749240,3,1741276223068067571,0.10977074,-9.773185,0.19651055
801749250,3,1741276223078052519,0.109471634,-9.768997,0.20309082
801749260,3,1741276223088038144,0.09900304,-9.763314,0.19740787
801749270,3,1741276223098022988,0.11335997,-9.766904,0.20428723
801749280,3,1741276223108007728,0.11306087,-9.75823,0.2114657
801749290,3,1741276223117991686,0.116650105,-9.754043,0.20817557
801749300,3,1741276223127977936,0.11425728,-9.777372,0.20847467
801749310,3,1741276223137962884,0.1052842,-9.75823,0.2009971
801749320,3,1741276223147948509,0.101694964,-9.763314,0.20309082
801749330,3,1741276223157933353,0.09302098,-9.768699,0.19501504
801749340,3,1741276223167918196,0.1058824,-9.749257,0.19950159
801749350,3,1741276223177903144,0.10737792,-9.767801,0.19980069
801749360,3,1741276223187888769,0.11335997,-9.757333,0.19501504
801749370,3,1741276223197873613,0.11096715,-9.752547,0.19561325
801749380,3,1741276223207858561,0.10737792,-9.755239,0.19710876
801749390,3,1741276223217844082,0.09900304,-9.7681,0.19561325
801749400,3,1741276223227828144,0.11485548,-9.7681,0.20488544
801749410,3,1741276223237813769,0.11096715,-9.768699,0.18783657
801749420,3,1741276223247798717,0.10917253,-9.75823,0.20428723
801749430,3,1741276223257784342,0.11306087,-9.763913,0.19172491
801749440,3,1741276223267769186,0.103190474,-9.754341,0.20608185
801749450,3,1741276223277754134,0.117547415,-9.762417,0.19680966
801749460,3,1741276223287739759,0.1052842,-9.750453,0.20668006
801749470,3,1741276223297724603,0.09960124,-9.754043,0.20668006
801749480,3,1741276223307709446,0.11844472,-9.764511,0.19860429
801749490,3,1741276223317694394,0.111864455,-9.758529,0.20398813
801749500,3,1741276223327680019,0.10378868,-9.763314,0.20578274
801749510,3,1741276223337664863,0.10917253,-9.761221,0.20428723
801749520,3,1741276223347649603,0.10229317,-9.762118,0.20279172
801749530,3,1741276223357633717,0.10797612,-9.769596,0.19232312
801749540,3,1741276223367620123,0.10767702,-9.7681,0.20279172
801749550,3,1741276223377604967,0.112761766,-9.75494,0.20458634
801749560,3,1741276223387589915,0.106480606,-9.765707,0.19381863
801749570,3,1741276223397575540,0.11156536,-9.760024,0.1896312
801749580,3,1741276223407560384,0.10199407,-9.760623,0.20338993
801749590,3,1741276223417545228,0.11395818,-9.760324,0.20518455
801749600,3,1741276223427530175,0.111266255,-9.759726,0.20219351
801749610,3,1741276223437515800,0.09960124,-9.757033,0.20548365
801749620,3,1741276223447500644,0.102592275,-9.764212,0.20488544
801749630,3,1741276223457485592,0.10917253,-9.754043,0.20757736
801749640,3,1741276223467471217,0.109471634,-9.766904,0.19770697
801749650,3,1741276223477456061,0.10468599,-9.755239,0.20279172
801749660,3,1741276223487440905,0.09990034,-9.760024,0.20697916
801749670,3,1741276223497425853,0.10378868,-9.760324,0.20697916
801749680,3,1741276223507411478,0.10229317,-9.768699,0.19651055
801749689,3,1741276223517396321,0.118145615,-9.767502,0.19830517
801749699,3,1741276223527381165,0.10827523,-9.766306,0.19980069
801749709,3,1741276223537366113,0.10199407,-9.767801,0.21655045
801749719,3,1741276223547351738,0.09571291,-9.764511,0.2009971
801749729,3,1741276223557336582,0.10827523,-9.759128,0.19531415
801749739,3,1741276223567321530,0.10289137,-9.766006,0.20219351
801749749,3,1741276223577307155,0.09960124,-9.758529,0.21206391
801749759,3,1741276223587291998,0.10378868,-9.763016,0.20638095
801749769,3,1741276223597276842,0.10109676,-9.762118,0.20967108
801749779,3,1741276223607261790,0.110368945,-9.766604,0.200698
801749789,3,1741276223617247415,0.10917253,-9.760324,0.20907287
801749799,3,1741276223627232259,0.10767702,-9.761221,0.20907287
801749809,3,1741276223637217103,0.11246266,-9.763614,0.20817557
801749819,3,1741276223647202050,0.110368945,-9.766306,0.19920248
801749829,3,1741276223657187675,0.11066805,-9.768997,0.20458634
801749839,3,1741276223667172519,0.11216356,-9.7609215,0.19651055
801749849,3,1741276223677157467,0.1061815,-9.755538,0.19621146
801749859,3,1741276223687143092,0.11156536,-9.764811,0.2015953
801749869,3,1741276223697127936,0.10049855,-9.767502,0.20129621
801749879,3,1741276223707112780,0.11425728,-9.753445,0.20279172
801749889,3,1741276223717097728,0.10737792,-9.764811,0.20608185
801749899,3,1741276223727083353,0.111864455,-9.768699,0.20338993
801749909,3,1741276223737068196,0.116351,-9.761819,0.20877378
801749919,3,1741276223747053040,0.10887343,-9.755837,0.19680966
801749929,3,1741276223757037988,0.10917253,-9.760324,0.20757736
801749939,3,1741276223767023613,0.10797612,-9.749556,0.20338993
801749949,3,1741276223777008457,0.09720842,-9.763614,0.20757736
801749959,3,1741276223786993300,0.1061815,-9.774082,0.20129621
801749969,3,1741276223796978248,0.106480606,-9.759426,0.18723837
801749979,3,1741276223806963873,0.109471634,-9.764811,0.18574286
801749989,3,1741276223816948717,0.118145615,-9.753445,0.2117648
801749999,3,1741276223826933665,0.104087785,-9.760623,0.200698
801750009,3,1741276223836919290,0.10199407,-9.749257,0.19920248
801750019,3,1741276223846904134,0.098703936,-9.771989,0.20817557
801750029,3,1741276223856888978,0.111864455,-9.771091,0.20907287
801750039,3,1741276223866873925,0.104985096,-9.757631,0.20219351
801750049,3,1741276223876859550,0.104087785,-9.754341,0.20548365
801750059,3,1741276223886844394,0.116650105,-9.758529,0.19980069
801750069,3,1741276223896829238,0.10139586,-9.762417,0.19501504
801750079,3,1741276223906814186,0.09960124,-9.75823,0.2009971
801750089,3,1741276223916799811,0.112761766,-9.756136,0.20338993
801750099,3,1741276223926784655,0.10797612,-9.764811,0.19441684
801750109,3,1741276223936769394,0.11425728,-9.75494,0.2114657
801750119,3,1741276223946753509,0.11216356,-9.759726,0.20488544
801750129,3,1741276223956739915,0.1061815,-9.776774,0.19740787
801750139,3,1741276223966724863,0.09272188,-9.756734,0.2108675
801750149,3,1741276223976710488,0.116351,-9.759128,0.20219351
801750159,3,1741276223986695332,0.09810573,-9.769596,0.19292133
801750169,3,1741276223996680175,0.10737792,-9.764212,0.2015953
801750179,3,1741276224006665123,0.103190474,-9.763913,0.20428723
801750189,3,1741276224016650748,0.109471634,-9.762716,0.2111666
801750199,3,1741276224026635592,0.10229317,-9.766006,0.20428723
801750209,3,1741276224036620436,0.1055833,-9.754641,0.19172491
801750219,3,1741276224046605384,0.09900304,-9.753445,0.2009971
801750229,3,1741276224056591009,0.10707881,-9.7704935,0.20338993
801750239,3,1741276224066575853,0.11425728,-9.756136,0.21714866
801750249,3,1741276224076560800,0.09990034,-9.753445,0.19351953
801750259,3,1741276224086546425,0.10827523,-9.759726,0.21385853
801750269,3,1741276224096531269,0.11455639,-9.767203,0.20877378
801750279,3,1741276224106516113,0.10797612,-9.771989,0.20398813
801750289,3,1741276224116501061,0.1061815,-9.772287,0.19980069
801750299,3,1741276224126486686,0.101694964,-9.763614,0.19920248
801750309,3,1741276224136471530,0.09930214,-9.751051,0.20458634
801750319,3,1741276224146456373,0.090628155,-9.763016,0.19980069
801750329,3,1741276224156441321,0.09571291,-9.77139,0.20488544
801750339,3,1741276224166426946,0.09930214,-9.767502,0.21415763
801750349,3,1741276224176411790,0.100199446,-9.769297,0.19980069
801750358,3,1741276224186396634,0.10049855,-9.754341,0.21415763
801750368,3,1741276224196381582,0.10348958,-9.757931,0.2009971
801750378,3,1741276224206367207,0.116650105,-9.751051,0.20638095
801750388,3,1741276224216352050,0.112761766,-9.771989,0.20967108
801750398,3,1741276224226336998,0.104985096,-9.760024,0.21206391
801750408,3,1741276224236322623,0.09960124,-9.766904,0.18993029
801750418,3,1741276224246307467,0.10917253,-9.75135,0.2015953
801750428,3,1741276224256292311,0.11006984,-9.768997,0.19621146
801750438,3,1741276224266277259,0.10229317,-9.754341,0.19411774
801750448,3,1741276224276262884,0.104985096,-9.75823,0.20309082
801750458,3,1741276224286247728,0.10079765,-9.764212,0.20189442
801750468,3,1741276224296232571,0.103190474,-9.757931,0.20578274
801750478,3,1741276224306217519,0.111266255,-9.756136,0.20548365
801750488,3,1741276224316203144,0.10049855,-9.763614,0.20668006
801750498,3,1741276224326187988,0.10917253,-9.773783,0.21266212
801750508,3,1741276224336172936,0.11515459,-9.757033,0.20428723
801750518,3,1741276224346158561,0.10079765,-9.767502,0.20518455
801750528,3,1741276224356143405,0.10468599,-9.764811,0.19501504
801750538,3,1741276224366128248,0.10767702,-9.755837,0.2009971
801750548,3,1741276224376113196,0.10707881,-9.766006,0.20638095
801750558,3,1741276224386098821,0.106480606,-9.763614,0.19561325
801750568,3,1741276224396083665,0.10887343,-9.769895,0.20249261
801750578,3,1741276224406068509,0.11156536,-9.77139,0.19890338
801750588,3,1741276224416053248,0.11096715,-9.754341,0.200698
801750598,3,1741276224426037207,0.09960124,-9.760324,0.19950159
801750608,3,1741276224436023978,0.102592275,-9.755239,0.20338993
801750618,3,1741276224446008925,0.104985096,-9.768997,0.19591236
801750628,3,1741276224455994550,0.10857433,-9.764811,0.20338993
801750638,3,1741276224465979394,0.10677971,-9.756136,0.20368902
801750648,3,1741276224475964238,0.1058824,-9.766904,0.19202402
801750658,3,1741276224485949186,0.1055833,-9.771689,0.19591236
801750668,3,1741276224495934811,0.10827523,-9.755837,0.19202402
801750678,3,1741276224505919655,0.12053844,-9.762716,0.19800608
801750688,3,1741276224515904498,0.11216356,-9.755837,0.20249261
801750698,3,1741276224525889446,0.1061815,-9.762716,0.19950159
801750708,3,1741276224535875071,0.103190474,-9.764811,0.19142582
801750718,3,1741276224545859915,0.11515459,-9.767502,0.19471595
801750728,3,1741276224555844863,0.09900304,-9.757631,0.19950159
801750738,3,1741276224565830488,0.10767702,-9.763614,0.19950159
801750748,3,1741276224575815332,0.0951147,-9.766006,0.20129621
801750758,3,1741276224585800175,0.10917253,-9.769895,0.20578274
801750768,3,1741276224595785123,0.11784652,-9.765707,0.19920248
801750778,3,1741276224605770644,0.10139586,-9.7501545,0.19322042
801750788,3,1741276224615754707,0.10229317,-9.764811,0.19680966
801750798,3,1741276224625740436,0.11485548,-9.761221,0.20967108
801750808,3,1741276224635726061,0.11515459,-9.7609215,0.20189442
801750818,3,1741276224645710905,0.109471634,-9.768699,0.20129621
801750828,3,1741276224655695748,0.11724831,-9.757631,0.20458634
801750838,3,1741276224665680696,0.12023934,-9.761819,0.19980069
801750848,3,1741276224675666321,0.11006984,-9.769895,0.200698
801750858,3,1741276224685651165,0.10767702,-9.759128,0.200698
801750868,3,1741276224695636009,0.1061815,-9.763614,0.20428723
801750878,3,1741276224705620957,0.116351,-9.7654085,0.18903299
801750888,3,1741276224715606582,0.10707881,-9.760324,0.19531415
801750898,3,1741276224725591425,0.11365908,-9.761221,0.20847467
801750908,3,1741276224735576373,0.106480606,-9.762417,0.19950159
801750918,3,1741276224745561998,0.09302098,-9.759726,0.19680966
801750928,3,1741276224755546842,0.10917253,-9.757033,0.20309082
801750938,3,1741276224765531686,0.10289137,-9.764212,0.19740787
801750948,3,1741276224775516634,0.092422776,-9.77139,0.19770697
801750958,3,1741276224785502259,0.1058824,-9.772587,0.1902294
801750968,3,1741276224795487103,0.12173485,-9.753145,0.19232312
801750978,3,1741276224805471946,0.11425728,-9.75823,0.20787647
801750988,3,1741276224815456686,0.10468599,-9.763614,0.19680966
801750998,3,1741276224825440800,0.1061815,-9.766604,0.20309082
801751008,3,1741276224835427207,0.10827523,-9.749855,0.2009971
801751018,3,1741276224845412155,0.109471634,-9.760324,0.1896312
801751027,3,1741276224855397780,0.11545369,-9.755538,0.19950159
801751037,3,1741276224865382623,0.10348958,-9.7704935,0.18544376
801751047,3,1741276224875367571,0.10707881,-9.768399,0.20518455
801751057,3,1741276224885353196,0.10229317,-9.768399,0.19441684
801751067,3,1741276224895338040,0.11006984,-9.762118,0.20338993
801751077,3,1741276224905322884,0.11306087,-9.765109,0.19770697
801751087,3,1741276224915307623,0.096311115,-9.76152,0.19830517
801751097,3,1741276224925291738,0.109471634,-9.764212,0.20189442
801751107,3,1741276224935278144,0.115752794,-9.757033,0.18604197
801751117,3,1741276224945263092,0.08763713,-9.756435,0.19740787
801751127,3,1741276224955248717,0.10139586,-9.756435,0.20817557
801751137,3,1741276224965233561,0.12412767,-9.757931,0.19411774
801751147,3,1741276224975218509,0.10887343,-9.763614,0.19770697
801751157,3,1741276224985204134,0.104985096,-9.757333,0.19351953
801751167,3,1741276224995188978,0.10857433,-9.767203,0.19411774
801751177,3,1741276225005173821,0.10797612,-9.7681,0.19710876
801751187,3,1741276225015158769,0.10139586,-9.760623,0.20219351
801751197,3,1741276225025144394,0.10917253,-9.766306,0.19680966
801751207,3,1741276225035129238,0.100199446,-9.76152,0.19740787
801751217,3,1741276225045114082,0.09601201,-9.756734,0.19740787
801751227,3,1741276225055099030,0.10917253,-9.764212,0.1905285
801751237,3,1741276225065084655,0.11006984,-9.75494,0.18484555
801751247,3,1741276225075069498,0.10289137,-9.757931,0.18275183
801751257,3,1741276225085054446,0.10767702,-9.758828,0.19770697
801751267,3,1741276225095040071,0.11455639,-9.760024,0.20219351
801751277,3,1741276225105024915,0.104985096,-9.760623,0.19471595
801751287,3,1741276225115009655,0.1058824,-9.760024,0.19621146
801751297,3,1741276225124993769,0.11006984,-9.76152,0.2000998
801751307,3,1741276225134980175,0.09930214,-9.763913,0.20518455
801751317,3,1741276225144965019,0.10677971,-9.758529,0.2000998
801751327,3,1741276225154949967,0.09302098,-9.762716,0.19710876
801751337,3,1741276225164935592,0.098703936,-9.7681,0.19501504
801751347,3,1741276225174920436,0.11066805,-9.764811,0.19710876
801751357,3,1741276225184905384,0.1052842,-9.756136,0.19471595
801751367,3,1741276225194891009,0.11306087,-9.766604,0.19411774
801751377,3,1741276225204875853,0.110368945,-9.767502,0.18753748
801751387,3,1741276225214860696,0.10767702,-9.755538,0.19531415
801751397,3,1741276225224845644,0.100199446,-9.763614,0.19740787
801751407,3,1741276225234831269,0.10737792,-9.761819,0.19621146
801751417,3,1741276225244816113,0.1052842,-9.763016,0.20727827
801751427,3,1741276225254801061,0.1058824,-9.756136,0.19830517
801751437,3,1741276225264786686,0.11006984,-9.757033,0.19471595
801751447,3,1741276225274771530,0.10438689,-9.763614,0.19082761
801751457,3,1741276225284756373,0.10229317,-9.777073,0.18993029
801751467,3,1741276225294741321,0.10887343,-9.75135,0.20219351
801751477,3,1741276225304726946,0.10229317,-9.773783,0.20189442
801751487,3,1741276225314711686,0.10797612,-9.766904,0.19980069
801751497,3,1741276225324695644,0.10229317,-9.757033,0.19980069
801751507,3,1741276225334681894,0.10109676,-9.770792,0.19142582
801751517,3,1741276225344666842,0.08823533,-9.754641,0.18813568
801751527,3,1741276225354652467,0.111266255,-9.762716,0.19351953
801751537,3,1741276225364637311,0.11425728,-9.764212,0.19980069
801751547,3,1741276225374622155,0.111864455,-9.760324,0.18813568
801751557,3,1741276225384607103,0.10199407,-9.757333,0.18604197
801751567,3,1741276225394592728,0.10049855,-9.764511,0.1902294
801751577,3,1741276225404577571,0.111266255,-9.771689,0.19411774
801751587,3,1741276225414562311,0.10468599,-9.779765,0.20249261
801751597,3,1741276225424546425,0.10737792,-9.758529,0.18813568
801751607,3,1741276225434532832,0.10109676,-9.763016,0.18454644
801751617,3,1741276225444517780,0.09840483,-9.750453,0.18634106
801751627,3,1741276225454503405,0.10229317,-9.767801,0.1902294
801751637,3,1741276225464488248,0.1052842,-9.746565,0.19411774
801751647,3,1741276225474473092,0.11156536,-9.759726,0.2009971
801751657,3,1741276225484458040,0.11156536,-9.760024,0.1902294
801751667,3,1741276225494443665,0.10737792,-9.762417,0.19621146
801751677,3,1741276225504428509,0.1052842,-9.772287,0.19561325
801751687,3,1741276225514413248,0.1061815,-9.767801,0.19890338
801751696,3,1741276225524397207,0.09032906,-9.766604,0.18873389
801751706,3,1741276225534383717,0.10468599,-9.759128,0.19561325
801751716,3,1741276225544369342,0.1052842,-9.753743,0.19680966
801751726,3,1741276225554354186,0.1058824,-9.770194,0.1905285
801751736,3,1741276225564339030,0.111864455,-9.753743,0.19950159
801751746,3,1741276225574323978,0.09451649,-9.770194,0.19920248
801751756,3,1741276225584309603,0.11066805,-9.763314,0.19082761
801751766,3,1741276225594294446,0.10229317,-9.77498,0.19561325
801751776,3,1741276225604279186,0.102592275,-9.758828,0.19232312
801751786,3,1741276225614263144,0.10378868,-9.753145,0.18574286
801751796,3,1741276225624235436,0.10438689,-9.756136,0.19082761
801751806,3,1741276225634066373,0.11096715,-9.760024,0.19082761
801751816,3,1741276225644249550,0.111864455,-9.766904,0.19890338
801751827,3,1741276225654432936,0.0951147,-9.767203,0.18245272
801751837,3,1741276225664616998,0.09272188,-9.763614,0.1797608
801751847,3,1741276225674801061,0.10378868,-9.757033,0.18693927
801751857,3,1741276225684985123,0.104985096,-9.756435,0.20189442
801751867,3,1741276225695168978,0.09930214,-9.767801,0.19471595
801751877,3,1741276225705305488,0.10707881,-9.7654085,0.1896312
801751887,3,1741276225715290123,0.11156536,-9.767801,0.20488544
801751897,3,1741276225725274550,0.10887343,-9.772287,0.19142582
801751907,3,1741276225735260748,0.10977074,-9.7609215,0.19411774
801751917,3,1741276225745245592,0.09960124,-9.769895,0.18813568
801751927,3,1741276225755230644,0.104087785,-9.767502,0.19651055
801751937,3,1741276225765216165,0.09990034,-9.767502,0.19501504
801751947,3,1741276225775201009,0.10707881,-9.763016,0.20817557
801751957,3,1741276225785185853,0.10229317,-9.769297,0.2015953
801751967,3,1741276225795170905,0.10199407,-9.77139,0.19651055
801751977,3,1741276225805156217,0.101694964,-9.775578,0.19202402
801751987,3,1741276225815140175,0.112761766,-9.754341,0.19920248
801751997,3,1741276225825147675,0.1061815,-9.766006,0.19262223
801752007,3,1741276225835330853,0.09361918,-9.7609215,0.19351953
801752018,3,1741276225845514290,0.10977074,-9.760623,0.18664017
801752028,3,1741276225855648353,0.10468599,-9.761221,0.18664017
801752038,3,1741276225865654082,0.111266255,-9.772587,0.19770697
801752048,3,1741276225875639550,0.10348958,-9.769596,0.2000998
801752058,3,1741276225885624394,0.09990034,-9.763913,0.18574286
801752068,3,1741276225895609498,0.09960124,-9.7654085,0.17826529
801752078,3,1741276225905594967,0.09930214,-9.7681,0.19441684
801752088,3,1741276225915579550,0.1052842,-9.758828,0.19381863
801752098,3,1741276225925563978,0.110368945,-9.762417,0.18664017
801752108,3,1741276225935550071,0.11156536,-9.75494,0.19471595
801752118,3,1741276225945534915,0.10199407,-9.767502,0.18544376
801752128,3,1741276225955520019,0.10767702,-9.7654085,0.19471595
801752138,3,1741276225965505488,0.104087785,-9.756734,0.19172491
801752148,3,1741276225975490332,0.10229317,-9.778569,0.19232312
801752158,3,1741276225985475436,0.10438689,-9.765707,0.18574286
801752168,3,1741276225995460905,0.1055833,-9.753445,0.19531415
801752178,3,1741276226005445748,0.112761766,-9.769895,0.19082761
801752188,3,1741276226015430592,0.10079765,-9.7681,0.19920248
801752198,3,1741276226025415696,0.10049855,-9.765109,0.19501504
801752208,3,1741276226035401165,0.09421739,-9.763913,0.19322042
801752217,3,1741276226045386009,0.11096715,-9.773783,0.19292133
801752227,3,1741276226055371113,0.104985096,-9.756734,0.18723837
801752237,3,1741276226065356582,0.10677971,-9.762716,0.19441684
801752247,3,1741276226075341425,0.10438689,-9.758529,0.19202402
801752257,3,1741276226085326530,0.111864455,-9.765109,0.200698
801752267,3,1741276226095311998,0.10827523,-9.763913,0.19501504
801752277,3,1741276226105296842,0.109471634,-9.766904,0.2009971
801752287,3,1741276226115281425,0.101694964,-9.766904,0.19890338
801752297,3,1741276226125230071,0.10977074,-9.751948,0.1896312
801752307,3,1741276226135131478,0.11335997,-9.763913,0.19202402
801752317,3,1741276226145314655,0.10707881,-9.769596,0.18783657
801752328,3,1741276226155498144,0.109471634,-9.761819,0.1902294
801752338,3,1741276226165676582,0.10707881,-9.762417,0.19142582
801752348,3,1741276226175780019,0.103190474,-9.772587,0.200698
801752358,3,1741276226185764863,0.10109676,-9.758828,0.19262223
801752368,3,1741276226195750019,0.098703936,-9.764212,0.18993029
801752378,3,1741276226205735436,0.09032906,-9.773484,0.20428723
801752388,3,1741276226215719967,0.101694964,-9.7609215,0.19591236
801752398,3,1741276226225704707,0.10348958,-9.758529,0.19770697
801752408,3,1741276226235690696,0.11365908,-9.766306,0.20249261
801752418,3,1741276226245675540,0.09661021,-9.755239,0.18723837
801752428,3,1741276226255660696,0.10827523,-9.754641,0.19591236
801752438,3,1741276226265646113,0.11216356,-9.774082,0.19262223
801752448,3,1741276226275630957,0.10468599,-9.7681,0.1911267
801752458,3,1741276226285615488,0.10229317,-9.754641,0.20249261
801752468,3,1741276226295540592,0.10887343,-9.763314,0.19411774
801752478,3,1741276226305465488,0.101694964,-9.751948,0.19531415
801752488,3,1741276226315566634,0.10707881,-9.758529,0.19202402
801752498,3,1741276226325620905,0.10229317,-9.765707,0.18125631
801752508,3,1741276226335722050,0.11066805,-9.758828,0.2000998
801752518,3,1741276226345642884,0.10109676,-9.758529,0.18843478
801752528,3,1741276226355581425,0.11365908,-9.759426,0.20309082
801752538,3,1741276226365764603,0.10917253,-9.748658,0.19950159
801752548,3,1741276226375948144,0.112761766,-9.758828,0.19531415
801752558,3,1741276226386051998,0.10289137,-9.7704935,0.19411774
801752568,3,1741276226396039446,0.09960124,-9.7609215,0.19322042
801752578,3,1741276226406024655,0.11006984,-9.7681,0.20368902
801752588,3,1741276226416009655,0.103190474,-9.758529,0.19710876
801752598,3,1741276226425994238,0.1058824,-9.767801,0.19202402
801752608,3,1741276226435979967,0.111266255,-9.753145,0.20578274
801752618,3,1741276226445965332,0.1061815,-9.762118,0.18903299
801752628,3,1741276226455950175,0.10767702,-9.758529,0.18873389
801752638,3,1741276226465935384,0.11006984,-9.762417,0.19740787
801752648,3,1741276226475920748,0.1055833,-9.780065,0.1902294
801752658,3,1741276226485905228,0.09810573,-9.772587,0.19950159
801752668,3,1741276226495818561,0.116351,-9.764811,0.19441684
801752678,3,1741276226505763665,0.09750752,-9.7704935,0.1902294
801752688,3,1741276226515860853,0.11066805,-9.7681,0.19770697
801752698,3,1741276226525927884,0.08883354,-9.76152,0.18873389
801752708,3,1741276226536017311,0.10378868,-9.77139,0.19770697
801752718,3,1741276226546059863,0.10917253,-9.763913,0.18604197
801752728,3,1741276226556243040,0.118145615,-9.764511,0.20787647
801752738,3,1741276226566352050,0.10707881,-9.760324,0.19292133
801752748,3,1741276226576358873,0.10049855,-9.763314,0.20697916
801752758,3,1741276226586344186,0.10887343,-9.76152,0.19740787
801752768,3,1741276226596328613,0.116650105,-9.765707,0.18544376
801752778,3,1741276226606313665,0.102592275,-9.759128,0.19920248
801752788,3,1741276226616299446,0.10677971,-9.767801,0.19381863
801752798,3,1741276226626284290,0.0951147,-9.761819,0.1911267
801752808,3,1741276226636269550,0.09840483,-9.766006,0.1902294
801752818,3,1741276226646254863,0.104985096,-9.768399,0.19262223
801752828,3,1741276226656239707,0.10677971,-9.765707,0.19890338
801752838,3,1741276226666224967,0.104985096,-9.77139,0.19980069
801752848,3,1741276226676209863,0.101694964,-9.760024,0.20129621
801752858,3,1741276226686123196,0.10677971,-9.766904,0.19202402
801752868,3,1741276226696095071,0.109471634,-9.762118,0.18604197
801752878,3,1741276226706278248,0.10977074,-9.762118,0.2000998
801752888,3,1741276226716355957,0.096311115,-9.755239,0.19262223
801752899,3,1741276226726410228,0.103190474,-9.771989,0.19381863
801752909,3,1741276226736487936,0.11096715,-9.7609215,0.20668006
801752919,3,1741276226746530488,0.09930214,-9.769895,0.20608185
801752929,3,1741276226756645696,0.101694964,-9.760324,0.20129621
801752939,3,1741276226766663457,0.10438689,-9.754341,0.19471595
801752949,3,1741276226776647832,0.1058824,-9.769596,0.20129621
801752959,3,1741276226786633040,0.11335997,-9.762118,0.19860429
801752969,3,1741276226796618717,0.101694964,-9.7681,0.19471595
801752979,3,1741276226806604030,0.09212367,-9.760024,0.20398813
801752989,3,1741276226816588821,0.09272188,-9.760623,0.2000998
801752999,3,1741276226826573092,0.096909314,-9.768399,0.2000998
801753009,3,1741276226836558717,0.11006984,-9.772886,0.19860429
801753019,3,1741276226846543925,0.11425728,-9.763314,0.19830517
801753029,3,1741276226856634603,0.1055833,-9.757033,0.18693927
801753039,3,1741276226866817780,0.10079765,-9.763314,0.19232312
801753049,3,1741276226876883769,0.11216356,-9.74836,0.19501504
801753059,3,1741276226886773561,0.11246266,-9.760324,0.19411774
801753069,3,1741276226896792415,0.1055833,-9.75823,0.20249261
801753079,3,1741276226906975592,0.10049855,-9.766006,0.18873389
801753089,3,1741276226917029863,0.09990034,-9.772587,0.20129621
801753099,3,1741276226927013821,0.111864455,-9.764811,0.20309082
801753109,3,1741276226936997780,0.10857433,-9.764811,0.1902294
801753119,3,1741276226947110644,0.11365908,-9.756435,0.19950159
801753129,3,1741276226957294394,0.10468599,-9.764511,0.2015953
801753140,3,1741276226967473300,0.111864455,-9.767801,0.19800608
801753150,3,1741276226977525071,0.098703936,-9.759726,0.2015953
801753160,3,1741276226987510592,0.09661021,-9.766006,0.19920248
801753170,3,1741276226997496061,0.111864455,-9.759128,0.18873389
801753180,3,1741276227007480905,0.10707881,-9.765707,0.2000998
801753190,3,1741276227017466321,0.10977074,-9.769297,0.18783657
801753200,3,1741276227027451478,0.103190474,-9.765707,0.19800608
801753210,3,1741276227037436321,0.10049855,-9.759426,0.18783657
801753220,3,1741276227047421738,0.10887343,-9.756136,0.19830517
801753230,3,1741276227057406894,0.10977074,-9.761221,0.19441684
801753239,3,1741276227067391165,0.11545369,-9.758529,0.19411774
801753249,3,1741276227077292728,0.09720842,-9.768399,0.19531415
801753259,3,1741276227087335280,0.09601201,-9.757931,0.19830517
801753269,3,1741276227097377832,0.1061815,-9.763614,0.20368902
801753280,3,1741276227107478978,0.09900304,-9.757931,0.19232312
801753290,3,1741276227117662155,0.106480606,-9.746565,0.20338993
801753300,3,1741276227127846061,0.10079765,-9.760024,0.19710876
801753310,3,1741276227138030123,0.097806625,-9.767502,0.20249261
801753320,3,1741276227148214186,0.102592275,-9.762716,0.1893321
801753330,3,1741276227158398248,0.10468599,-9.752547,0.19800608
801753341,3,1741276227168582311,0.09750752,-9.762716,0.18305093
801753351,3,1741276227178601582,0.10707881,-9.7609215,0.19262223
801753361,3,1741276227188726165,0.106480606,-9.763314,0.2015953
801753371,3,1741276227198909342,0.10857433,-9.768699,0.20668006
801753381,3,1741276227208943040,0.10348958,-9.763016,0.20338993
801753391,3,1741276227218930853,0.11006984,-9.753743,0.19890338
801753401,3,1741276227228915696,0.104985096,-9.771689,0.19561325
801753411,3,1741276227238901269,0.11156536,-9.756136,0.20668006
801753421,3,1741276227248886269,0.09661021,-9.755837,0.19740787
801753431,3,1741276227258871113,0.08644072,-9.7654085,0.2000998
801753441,3,1741276227268855228,0.101694964,-9.768699,0.20398813
801753451,3,1741276227278839186,0.102592275,-9.761221,0.19890338
801753461,3,1741276227288975800,0.11066805,-9.763314,0.20638095
801753471,3,1741276227299158978,0.10438689,-9.759726,0.19800608
801753481,3,1741276227309342155,0.10438689,-9.7609215,0.19830517
801753491,3,1741276227319326113,0.11485548,-9.765109,0.19501504
801753502,3,1741276227329415540,0.11425728,-9.763016,0.19202402
801753512,3,1741276227339598717,0.1055833,-9.758828,0.19441684
801753522,3,1741276227349582675,0.10348958,-9.757033,0.19441684
801753532,3,1741276227359730696,0.10767702,-9.76152,0.19890338
801753542,3,1741276227369913873,0.11545369,-9.764811,0.19980069
801753552,3,1741276227379897832,0.09930214,-9.766006,0.19591236
801753562,3,1741276227390057571,0.09750752,-9.758828,0.19770697
801753572,3,1741276227400240748,0.10767702,-9.738489,0.19920248
801753583,3,1741276227410409759,0.11216356,-9.757333,0.2000998
801753592,3,1741276227420393717,0.104985096,-9.764811,0.20219351
801753602,3,1741276227430380592,0.10677971,-9.763016,0.20249261
801753612,3,1741276227440365436,0.101694964,-9.761221,0.20279172
801753622,3,1741276227450350280,0.11425728,-9.762118,0.20398813
801753632,3,1741276227460336009,0.10887343,-9.7681,0.19710876
801753642,3,1741276227470319967,0.119042926,-9.7681,0.20458634
801753652,3,1741276227480303925,0.09990034,-9.76152,0.19860429
801753662,3,1741276227490290905,0.11066805,-9.762417,0.19830517
801753673,3,1741276227500462363,0.10139586,-9.766604,0.2015953
801753683,3,1741276227510446321,0.1061815,-9.753743,0.20817557
801753693,3,1741276227520430280,0.10767702,-9.77139,0.19950159
801753703,3,1741276227530590123,0.10378868,-9.760024,0.19381863
801753713,3,1741276227540773405,0.1055833,-9.772886,0.18753748
801753723,3,1741276227550957467,0.09930214,-9.756734,0.19680966
801753733,3,1741276227561117988,0.10139586,-9.757931,0.19292133
801753743,3,1741276227571113665,0.102592275,-9.755837,0.20668006
801753753,3,1741276227581280384,0.10677971,-9.757333,0.19950159
801753763,3,1741276227591316894,0.10977074,-9.759726,0.20428723
801753773,3,1741276227601302519,0.11485548,-9.761819,0.19980069
801753783,3,1741276227611287363,0.10767702,-9.765109,0.20638095
801753793,3,1741276227621272311,0.11246266,-9.75823,0.20368902
801753803,3,1741276227631257936,0.1055833,-9.75494,0.20428723
801753813,3,1741276227641242780,0.11156536,-9.763016,0.1905285
801753823,3,1741276227651227519,0.104985096,-9.765109,0.2000998
801753833,3,1741276227661199707,0.11485548,-9.762716,0.20638095
801753843,3,1741276227671007207,0.110368945,-9.766604,0.20338993
801753853,3,1741276227681002884,0.112761766,-9.770194,0.20129621
801753863,3,1741276227691186061,0.10677971,-9.765707,0.19322042
801753873,3,1741276227701369238,0.10917253,-9.7681,0.20249261
801753884,3,1741276227711517259,0.118145615,-9.754341,0.19980069
801753894,3,1741276227721501217,0.111266255,-9.756734,0.19800608
801753904,3,1741276227731647988,0.1055833,-9.7681,0.19710876
801753914,3,1741276227741681113,0.1052842,-9.759426,0.2009971
801753924,3,1741276227751666686,0.111266255,-9.765109,0.19441684
801753934,3,1741276227761651530,0.09092726,-9.760024,0.19411774
801753944,3,1741276227771636530,0.11425728,-9.769596,0.20219351
801753954,3,1741276227781622103,0.111266255,-9.762118,0.20309082
801753964,3,1741276227791606946,0.100199446,-9.753145,0.19202402
801753974,3,1741276227801591946,0.111864455,-9.761819,0.19920248
801753984,3,1741276227811577363,0.102592275,-9.768399,0.20697916
801753994,3,1741276227821561321,0.11545369,-9.759128,0.20668006
801754004,3,1741276227831547467,0.119042926,-9.759128,0.20309082
801754014,3,1741276227841532467,0.10857433,-9.754641,0.19860429
801754024,3,1741276227851517884,0.1058824,-9.756435,0.20638095
801754034,3,1741276227861501842,0.101694964,-9.771989,0.20279172
801754043,3,1741276227871356373,0.0951147,-9.760324,0.20847467
801754054,3,1741276227881480957,0.106480606,-9.769297,0.19680966
801754064,3,1741276227891500071,0.09960124,-9.758529,0.20458634
801754074,3,1741276227901683248,0.09990034,-9.760324,0.21565314
801754084,3,1741276227911807832,0.1052842,-9.757333,0.20488544
801754094,3,1741276227921803509,0.11006984,-9.759128,0.20578274
801754104,3,1741276227931986686,0.10289137,-9.762716,0.19980069
801754114,3,1741276227942170123,0.11246266,-9.766006,0.19531415
801754124,3,1741276227952354186,0.12203395,-9.770194,0.200698
801754135,3,1741276227962494238,0.10438689,-9.773484,0.2009971
801754145,3,1741276227972514082,0.10977074,-9.763614,0.20279172
801754155,3,1741276227982499186,0.10049855,-9.766306,0.20428723
801754165,3,1741276227992484655,0.11246266,-9.755239,0.19770697
801754175,3,1741276228002469498,0.112761766,-9.765109,0.20398813
801754185,3,1741276228012454082,0.10468599,-9.763314,0.20368902
801754195,3,1741276228022438040,0.09900304,-9.766904,0.20488544
801754205,3,1741276228032422103,0.111864455,-9.764811,0.20548365
801754214,3,1741276228042370853,0.10079765,-9.769596,0.20039889
801754224,3,1741276228052267311,0.11156536,-9.754641,0.21355942
801754234,3,1741276228062380280,0.10677971,-9.765707,0.20757736
801754245,3,1741276228072423457,0.1055833,-9.763913,0.20039889
801754255,3,1741276228082606634,0.10049855,-9.769596,0.19561325
801754265,3,1741276228092789811,0.11006984,-9.756136,0.20518455
801754275,3,1741276228102973405,0.106480606,-9.773185,0.1911267
801754285,3,1741276228113063300,0.104087785,-9.766604,0.19351953
801754295,3,1741276228123105853,0.10109676,-9.763614,0.20578274
801754305,3,1741276228133289030,0.09990034,-9.763016,0.18903299
801754316,3,1741276228143472623,0.09302098,-9.749257,0.20817557
801754326,3,1741276228153656686,0.10378868,-9.753445,0.19202402
801754336,3,1741276228163840748,0.09810573,-9.7654085,0.20967108
801754346,3,1741276228173953561,0.10677971,-9.757931,0.20967108
801754356,3,1741276228183963717,0.09840483,-9.760324,0.19621146
801754366,3,1741276228193948978,0.09571291,-9.769297,0.20189442
801754376,3,1741276228203934290,0.1058824,-9.755538,0.19980069
801754386,3,1741276228213918717,0.091525465,-9.765109,0.19770697
801754396,3,1741276228223903457,0.09840483,-9.762417,0.19680966
801754406,3,1741276228233889238,0.10468599,-9.764212,0.20817557
801754416,3,1741276228243873665,0.10139586,-9.765707,0.19621146
801754426,3,1741276228253857623,0.11964113,-9.762716,0.19262223
801754436,3,1741276228263923925,0.106480606,-9.764811,0.20039889
801754446,3,1741276228274107103,0.10199407,-9.763314,0.20249261
801754456,3,1741276228284161373,0.1058824,-9.755538,0.20428723
801754466,3,1741276228294250800,0.09990034,-9.769297,0.20608185
801754477,3,1741276228304433978,0.11006984,-9.756734,0.20309082
801754487,3,1741276228314488248,0.11934203,-9.754043,0.20219351
801754497,3,1741276228324542519,0.11515459,-9.758529,0.19680966
801754507,3,1741276228334725696,0.11306087,-9.763913,0.20727827
801754517,3,1741276228344909446,0.11156536,-9.760324,0.20787647
801754527,3,1741276228355093509,0.11455639,-9.768699,0.20338993
801754537,3,1741276228365277571,0.1160519,-9.762118,0.19980069
801754548,3,1741276228375404342,0.10977074,-9.762716,0.20249261
801754558,3,1741276228385428248,0.10767702,-9.766904,0.20548365
801754568,3,1741276228395413665,0.111864455,-9.75494,0.20907287
801754578,3,1741276228405398821,0.09900304,-9.769596,0.2105684
801754587,3,1741276228415383092,0.12203395,-9.772886,0.20279172
801754597,3,1741276228425368300,0.10917253,-9.773185,0.20249261
801754607,3,1741276228435354082,0.106480606,-9.766006,0.20458634
801754617,3,1741276228445338353,0.109471634,-9.760623,0.19651055
801754627,3,1741276228455216373,0.10917253,-9.764811,0.20398813
801754637,3,1741276228465258717,0.104087785,-9.754043,0.20518455
801754648,3,1741276228475441894,0.11246266,-9.7704935,0.19980069
801754658,3,1741276228485625696,0.111864455,-9.766904,0.18993029
801754668,3,1741276228495798509,0.10079765,-9.757333,0.19950159
801754678,3,1741276228505837259,0.10229317,-9.766604,0.20817557
801754688,3,1741276228515821478,0.10289137,-9.752248,0.19591236
801754698,3,1741276228525806894,0.12203395,-9.769596,0.19860429
801754708,3,1741276228535791894,0.100199446,-9.761221,0.1911267
801754718,3,1741276228545777415,0.103190474,-9.758529,0.2105684
801754728,3,1741276228555763405,0.10139586,-9.752846,0.2009971
801754738,3,1741276228565748509,0.09122636,-9.765109,0.20458634
801754748,3,1741276228575733353,0.12113664,-9.763614,0.19740787
801754758,3,1741276228585718821,0.10229317,-9.761221,0.19531415
801754768,3,1741276228595703925,0.11335997,-9.753145,0.20518455
801754778,3,1741276228605688769,0.10378868,-9.76152,0.20279172
801754788,3,1741276228615672988,0.09302098,-9.757931,0.19710876
801754798,3,1741276228625657050,0.119940236,-9.762417,0.19680966
801754808,3,1741276228635641009,0.09661021,-9.770194,0.20907287
801754818,3,1741276228645624967,0.09750752,-9.763314,0.19262223
801754828,3,1741276228655737936,0.10229317,-9.758828,0.2000998
801754838,3,1741276228665921113,0.10917253,-9.754043,0.20638095
801754848,3,1741276228676104290,0.119042926,-9.764811,0.20309082
801754858,3,1741276228686288196,0.1058824,-9.763614,0.19950159
801754869,3,1741276228696472259,0.11246266,-9.763913,0.20368902
801754879,3,1741276228706656321,0.101694964,-9.755837,0.20727827
801754889,3,1741276228716696009,0.103190474,-9.75494,0.20608185
801754899,3,1741276228726685071,0.110368945,-9.7654085,0.1911267
801754909,3,1741276228736669915,0.091525465,-9.754641,0.20458634
801754919,3,1741276228746655488,0.09960124,-9.763314,0.21804596
801754929,3,1741276228756640488,0.115752794,-9.760623,0.2000998
801754939,3,1741276228766625332,0.10767702,-9.757333,0.20249261
801754949,3,1741276228776610905,0.103190474,-9.763614,0.21595225
801754959,3,1741276228786595175,0.096311115,-9.763913,0.20697916
801754969,3,1741276228796580853,0.10887343,-9.7654085,0.19980069
801754979,3,1741276228806566009,0.10887343,-9.761819,0.20488544
801754989,3,1741276228816550123,0.111266255,-9.7704935,0.20518455
801754999,3,1741276228826535957,0.111864455,-9.771689,0.21026929
801755009,3,1741276228836520540,0.09661021,-9.766904,0.2108675
801755019,3,1741276228846506373,0.09930214,-9.760324,0.20309082
801755029,3,1741276228856491530,0.10139586,-9.757631,0.20309082
801755039,3,1741276228866477103,0.09661021,-9.764212,0.20458634
801755049,3,1741276228876462103,0.096311115,-9.767203,0.20817557
801755059,3,1741276228886446946,0.1055833,-9.756136,0.2117648
801755069,3,1741276228896432519,0.11485548,-9.763016,0.20488544
801755079,3,1741276228906417519,0.11156536,-9.760324,0.20697916
801755089,3,1741276228916402363,0.10917253,-9.75494,0.20129621
801755098,3,1741276228926387936,0.10289137,-9.7681,0.2015953
801755108,3,1741276228936372936,0.10438689,-9.75135,0.21266212
801755118,3,1741276228946357780,0.109471634,-9.769596,0.20458634
801755128,3,1741276228956343353,0.09720842,-9.762716,0.19800608
801755138,3,1741276228966328353,0.11006984,-9.757631,0.20548365
801755148,3,1741276228976313196,0.09900304,-9.765707,0.20548365
801755158,3,1741276228986298769,0.10049855,-9.7609215,0.20338993
801755168,3,1741276228996283769,0.11006984,-9.76152,0.20428723
801755178,3,1741276229006268613,0.11156536,-9.760623,0.19950159
801755188,3,1741276229016254186,0.09900304,-9.766306,0.20578274
801755198,3,1741276229026239186,0.10827523,-9.760324,0.2009971
801755208,3,1741276229036223300,0.10468599,-9.762118,0.20548365
801755218,3,1741276229046209290,0.11156536,-9.759726,0.19740787
801755228,3,1741276229056194446,0.0951147,-9.755538,0.20907287
801755238,3,1741276229066180019,0.11545369,-9.761819,0.20458634
801755248,3,1741276229076165019,0.09840483,-9.756136,0.21505493
801755258,3,1741276229086149863,0.11066805,-9.773185,0.20219351
801755268,3,1741276229096133978,0.09601201,-9.764511,0.20608185
801755278,3,1741276229105964915,0.10438689,-9.762716,0.19621146
801755288,3,1741276229116077728,0.1058824,-9.764212,0.20039889
801755298,3,1741276229126260905,0.10229317,-9.754641,0.200698
801755309,3,1741276229136444863,0.100199446,-9.772886,0.20458634
801755319,3,1741276229146625019,0.096909314,-9.749257,0.20787647
801755329,3,1741276229156633561,0.103190474,-9.757631,0.20638095
801755339,3,1741276229166618509,0.10767702,-9.769297,0.20847467
801755349,3,1741276229176603353,0.10378868,-9.760623,0.20368902
801755359,3,1741276229186588978,0.10289137,-9.769297,0.19980069
801755369,3,1741276229196573925,0.10797612,-9.759128,0.20279172
801755379,3,1741276229206558769,0.10438689,-9.756734,0.20727827
801755389,3,1741276229216544394,0.11694921,-9.767203,0.19740787
801755399,3,1741276229226529342,0.10378868,-9.764511,0.20907287
801755409,3,1741276229236514186,0.09990034,-9.754641,0.19980069
801755419,3,1741276229246499811,0.11156536,-9.763016,0.20847467
801755429,3,1741276229256484759,0.10348958,-9.763314,0.20309082
801755439,3,1741276229266469603,0.09960124,-9.774082,0.21326032
801755449,3,1741276229276455228,0.104087785,-9.766306,0.20877378
801755459,3,1741276229286440175,0.10977074,-9.762417,0.20608185
801755469,3,1741276229296425019,0.104087785,-9.7654085,0.20279172
801755479,3,1741276229306410644,0.10468599,-9.763913,0.20997019
801755488,3,1741276229316395592,0.101694964,-9.765707,0.20817557
801755498,3,1741276229326380436,0.11455639,-9.7609215,0.20368902
801755508,3,1741276229336366061,0.09661021,-9.752846,0.20368902
801755518,3,1741276229346351009,0.118145615,-9.75165,0.200698
801755528,3,1741276229356335853,0.10767702,-9.762716,0.21415763
801755538,3,1741276229366320696,0.1160519,-9.760623,0.19621146
801755548,3,1741276229376306321,0.10348958,-9.764811,0.20727827
801755558,3,1741276229386291269,0.09930214,-9.755239,0.19621146
801755568,3,1741276229396276113,0.10438689,-9.767203,0.19710876
801755578,3,1741276229406261738,0.10468599,-9.759128,0.20727827
801755588,3,1741276229416246686,0.109471634,-9.763913,0.2114657
801755598,3,1741276229426231530,0.09840483,-9.767203,0.2009971
801755608,3,1741276229436217155,0.09421739,-9.772886,0.20428723
801755618,3,1741276229446202103,0.101694964,-9.764511,0.20877378
801755628,3,1741276229456186165,0.10109676,-9.762118,0.21924238
801755638,3,1741276229466172311,0.11545369,-9.762118,0.20249261
801755648,3,1741276229476157363,0.1052842,-9.752547,0.2114657
801755658,3,1741276229486142988,0.109471634,-9.755239,0.19800608
801755668,3,1741276229496127936,0.1058824,-9.765109,0.19860429
801755678,3,1741276229506112780,0.11395818,-9.754641,0.20697916
801755688,3,1741276229516098405,0.10677971,-9.774382,0.20967108
801755698,3,1741276229526083353,0.11306087,-9.763314,0.21206391
801755708,3,1741276229536068196,0.1055833,-9.753145,0.20129621
801755718,3,1741276229546053821,0.118145615,-9.769895,0.19890338
801755728,3,1741276229556038769,0.11006984,-9.7609215,0.20249261
801755738,3,1741276229566023613,0.09990034,-9.769596,0.21385853
801755748,3,1741276229576009238,0.10079765,-9.7681,0.2105684
801755758,3,1741276229585994186,0.10977074,-9.759426,0.20458634
801755768,3,1741276229595979030,0.10707881,-9.752547,0.20937198
801755778,3,1741276229605964655,0.09900304,-9.75823,0.20338993
801755788,3,1741276229615948821,0.104985096,-9.754043,0.20997019
801755798,3,1741276229625934238,0.10917253,-9.759426,0.20518455
801755808,3,1741276229635919967,0.09900304,-9.758529,0.20578274
801755818,3,1741276229645904915,0.10079765,-9.7654085,0.19202402
801755828,3,1741276229655889759,0.111864455,-9.7609215,0.2111666
801755838,3,1741276229665875384,0.10079765,-9.760324,0.20877378
801755848,3,1741276229675860332,0.10229317,-9.771989,0.20967108
801755858,3,1741276229685845175,0.10139586,-9.769895,0.2009971
801755868,3,1741276229695830800,0.1061815,-9.762417,0.20907287
801755878,3,1741276229705815748,0.10977074,-9.772886,0.19471595
801755888,3,1741276229715800592,0.10887343,-9.754641,0.19770697
801755898,3,1741276229725786217,0.1055833,-9.770194,0.2114657
801755908,3,1741276229735771165,0.112761766,-9.755837,0.20638095
801755918,3,1741276229745756009,0.10229317,-9.771989,0.20129621
801755928,3,1741276229755741634,0.10917253,-9.765109,0.212363
801755938,3,1741276229765726582,0.10348958,-9.768399,0.20907287
801755948,3,1741276229775711425,0.10229317,-9.767203,0.20219351
801755958,3,1741276229785697050,0.106480606,-9.762417,0.2111666
801755968,3,1741276229795681998,0.11365908,-9.755538,0.20847467
801755978,3,1741276229805666842,0.098703936,-9.755239,0.2015953
801755988,3,1741276229815652467,0.09960124,-9.771989,0.21535404
801755998,3,1741276229825637415,0.10438689,-9.768997,0.20189442
801756008,3,1741276229835622259,0.112761766,-9.771689,0.20458634
801756018,3,1741276229845606321,0.09990034,-9.7609215,0.20608185
801756028,3,1741276229855592467,0.10977074,-9.755538,0.2117648
801756038,3,1741276229865577519,0.102592275,-9.764212,0.20877378
801756048,3,1741276229875563144,0.10468599,-9.763913,0.20368902
801756058,3,1741276229885548092,0.096311115,-9.762417,0.2015953
801756068,3,1741276229895532936,0.09302098,-9.75823,0.20428723
801756078,3,1741276229905518561,0.09990034,-9.749855,0.20428723
801756088,3,1741276229915503509,0.10139586,-9.763614,0.21595225
801756098,3,1741276229925488353,0.10378868,-9.769297,0.2114657
801756108,3,1741276229935473978,0.10229317,-9.757033,0.20309082
801756118,3,1741276229945458925,0.10887343,-9.753445,0.20309082
801756128,3,1741276229955443769,0.11246266,-9.758529,0.20458634
801756138,3,1741276229965429394,0.11096715,-9.747163,0.20309082
801756148,3,1741276229975414342,0.10677971,-9.755239,0.20129621
801756158,3,1741276229985399186,0.100199446,-9.76152,0.19740787
801756167,3,1741276229995384811,0.09750752,-9.761819,0.20877378
801756177,3,1741276230005369759,0.11455639,-9.767801,0.20638095
801756187,3,1741276230015354603,0.10827523,-9.7681,0.20967108
801756197,3,1741276230025340228,0.110368945,-9.777672,0.20937198
801756207,3,1741276230035325175,0.11216356,-9.758529,0.19950159
801756217,3,1741276230045310019,0.10707881,-9.759726,0.2108675
801756227,3,1741276230055295644,0.11365908,-9.762417,0.20458634
801756237,3,1741276230065280592,0.104985096,-9.762118,0.2105684
801756247,3,1741276230075265436,0.10797612,-9.766006,0.20249261
801756257,3,1741276230085251061,0.116351,-9.763016,0.20817557
801756267,3,1741276230095236009,0.10797612,-9.755239,0.20309082
801756277,3,1741276230105220853,0.10289137,-9.760623,0.20219351
801756287,3,1741276230115206478,0.09990034,-9.762417,0.21385853
801756297,3,1741276230125191425,0.098703936,-9.76152,0.21266212
801756307,3,1741276230135176269,0.09930214,-9.757631,0.19980069
801756317,3,1741276230145161894,0.096909314,-9.753445,0.19950159
801756327,3,1741276230155146842,0.101694964,-9.7654085,0.2111666
801756337,3,1741276230165131686,0.10977074,-9.75494,0.21625134
801756347,3,1741276230175117311,0.10707881,-9.754341,0.2117648
801756357,3,1741276230185102259,0.11395818,-9.7609215,0.20488544
801756367,3,1741276230195087103,0.11694921,-9.745967,0.21026929
801756377,3,1741276230205072728,0.10917253,-9.751051,0.20338993
801756387,3,1741276230215056894,0.09990034,-9.758529,0.19591236
801756397,3,1741276230225042884,0.11246266,-9.767502,0.21355942
801756407,3,1741276230235027936,0.12143575,-9.75494,0.20338993
801756417,3,1741276230245012780,0.093918286,-9.767203,0.2117648
801756427,3,1741276230254998405,0.10977074,-9.767502,0.20727827
801756437,3,1741276230264983353,0.11485548,-9.755538,0.20309082
801756447,3,1741276230274968196,0.10767702,-9.773783,0.21385853
801756457,3,1741276230284953821,0.09272188,-9.759426,0.21565314
801756467,3,1741276230294938769,0.11096715,-9.770792,0.20997019
801756477,3,1741276230304923613,0.10229317,-9.753743,0.20219351
801756487,3,1741276230314909238,0.1058824,-9.760024,0.2111666
801756497,3,1741276230324894186,0.106480606,-9.760024,0.20757736
801756507,3,1741276230334879030,0.09810573,-9.757631,0.20697916
801756517,3,1741276230344864655,0.111864455,-9.7609215,0.2114657
801756527,3,1741276230354849603,0.111266255,-9.7609215,0.20638095
801756537,3,1741276230364834446,0.11096715,-9.774382,0.21026929
801756547,3,1741276230374820071,0.116650105,-9.755837,0.20249261
801756557,3,1741276230384805019,0.10049855,-9.750752,0.20967108
801756567,3,1741276230394789863,0.10139586,-9.756435,0.20608185
801756577,3,1741276230404775488,0.1052842,-9.754341,0.200698
801756587,3,1741276230414759655,0.11216356,-9.749556,0.20697916
801756597,3,1741276230424745071,0.10468599,-9.760024,0.200698
801756607,3,1741276230434730800,0.10348958,-9.762118,0.20697916
801756617,3,1741276230444715748,0.09750752,-9.761221,0.20937198
801756627,3,1741276230454700592,0.101694964,-9.767502,0.19770697
801756637,3,1741276230464686217,0.11724831,-9.765707,0.20548365
801756647,3,1741276230474671165,0.11724831,-9.764511,0.2009971
801756657,3,1741276230484656009,0.10917253,-9.762118,0.20638095
801756667,3,1741276230494641634,0.10438689,-9.755837,0.19471595
801756677,3,1741276230504626582,0.115752794,-9.763314,0.20697916
801756687,3,1741276230514611425,0.11096715,-9.763614,0.21475583
801756697,3,1741276230524597050,0.10767702,-9.757333,0.20967108
801756707,3,1741276230534581998,0.09720842,-9.764212,0.22313072
801756717,3,1741276230544566842,0.10887343,-9.759726,0.19830517
801756727,3,1741276230554552467,0.112761766,-9.749855,0.19920248
801756737,3,1741276230564537415,0.10707881,-9.763314,0.20219351
801756747,3,1741276230574522259,0.10079765,-9.762716,0.22013968
801756757,3,1741276230584507884,0.11216356,-9.766306,0.20877378
801756767,3,1741276230594492832,0.10767702,-9.7609215,0.21655045
801756777,3,1741276230604477675,0.11006984,-9.76152,0.20787647
801756787,3,1741276230614463300,0.10707881,-9.759426,0.2111666
801756797,3,1741276230624448248,0.11006984,-9.767203,0.19920248
801756807,3,1741276230634433092,0.1061815,-9.766904,0.21415763
801756817,3,1741276230644417155,0.10289137,-9.756435,0.2117648
801756827,3,1741276230654403300,0.11365908,-9.759426,0.21535404
801756836,3,1741276230664388353,0.10677971,-9.764811,0.20578274
801756846,3,1741276230674373978,0.10378868,-9.75823,0.2108675
801756856,3,1741276230684358925,0.09750752,-9.757631,0.19471595
801756866,3,1741276230694343769,0.119042926,-9.763614,0.21266212
801756876,3,1741276230704329394,0.10079765,-9.756136,0.19262223
801756886,3,1741276230714314342,0.109471634,-9.757931,0.21774685
801756896,3,1741276230724299186,0.11306087,-9.759726,0.20189442
801756906,3,1741276230734284811,0.10049855,-9.75823,0.2108675
801756916,3,1741276230744269759,0.10229317,-9.751948,0.21415763
801756926,3,1741276230754254603,0.10857433,-9.753145,0.2111666
801756936,3,1741276230764240228,0.10348958,-9.75135,0.20338993
801756946,3,1741276230774225175,0.09272188,-9.767502,0.2105684
801756956,3,1741276230784210019,0.11694921,-9.757931,0.2114657
801756966,3,1741276230794195644,0.097806625,-9.755239,0.20039889
801756976,3,1741276230804180592,0.11156536,-9.766306,0.2219343
801756986,3,1741276230814165436,0.111266255,-9.767502,0.2114657
801756996,3,1741276230824151061,0.109471634,-9.764811,0.2015953
801757006,3,1741276230834136009,0.10348958,-9.767203,0.19651055
801757016,3,1741276230844120853,0.11425728,-9.76152,0.2114657
801757026,3,1741276230854106478,0.106480606,-9.760623,0.21834506
801757036,3,1741276230864091425,0.119042926,-9.771989,0.20787647
801757046,3,1741276230874076269,0.119940236,-9.769895,0.19950159
801757056,3,1741276230884061894,0.10857433,-9.752248,0.19621146
801757066,3,1741276230894046842,0.10438689,-9.760024,0.19591236
801757076,3,1741276230904031686,0.1058824,-9.767203,0.2111666
801757086,3,1741276230914017311,0.11455639,-9.755538,0.21266212
801757096,3,1741276230924002259,0.10348958,-9.772886,0.20578274
801757106,3,1741276230933987103,0.11545369,-9.766904,0.21206391
801757116,3,1741276230943972728,0.11006984,-9.761221,0.20398813
801757126,3,1741276230953957675,0.10827523,-9.762118,0.20458634
801757136,3,1741276230963942519,0.10767702,-9.766604,0.2009971
801757146,3,1741276230973928144,0.09750752,-9.772886,0.21266212
801757156,3,1741276230983913092,0.10109676,-9.764212,0.19411774
801757166,3,1741276230993897936,0.112761766,-9.763314,0.2009971
801757176,3,1741276231003883561,0.10348958,-9.768699,0.2000998
801757186,3,1741276231013868509,0.10707881,-9.7704935,0.21655045
801757196,3,1741276231023853353,0.11156536,-9.753445,0.20219351
801757206,3,1741276231033838978,0.09900304,-9.763913,0.19890338
801757216,3,1741276231043823925,0.10797612,-9.768997,0.20877378
801757226,3,1741276231053808769,0.116650105,-9.757631,0.19890338
801757236,3,1741276231063794394,0.1061815,-9.760324,0.20578274
801757246,3,1741276231073779342,0.103190474,-9.763614,0.19890338
801757256,3,1741276231083764186,0.10767702,-9.761221,0.20847467
801757266,3,1741276231093749811,0.11066805,-9.7654085,0.20518455
801757276,3,1741276231103734759,0.106480606,-9.763614,0.20398813
801757286,3,1741276231113719603,0.09990034,-9.763614,0.20368902
801757296,3,1741276231123705228,0.11425728,-9.7609215,0.2009971
801757306,3,1741276231133690175,0.0951147,-9.769596,0.20309082
801757316,3,1741276231143675019,0.11694921,-9.760324,0.19920248
801757326,3,1741276231153660644,0.11066805,-9.760024,0.20608185
801757336,3,1741276231163645592,0.111864455,-9.753445,0.19740787
801757346,3,1741276231173630436,0.10917253,-9.763314,0.19890338
801757356,3,1741276231183616061,0.10378868,-9.768997,0.20398813
801757366,3,1741276231193601009,0.10707881,-9.766006,0.20787647
801757376,3,1741276231203585853,0.10468599,-9.75823,0.20368902
801757386,3,1741276231213571478,0.11006984,-9.763913,0.20458634
801757396,3,1741276231223556425,0.11066805,-9.749556,0.20578274
801757406,3,1741276231233541269,0.11365908,-9.753743,0.2117648
801757416,3,1741276231243526894,0.110368945,-9.760024,0.20877378
801757426,3,1741276231253511842,0.096311115,-9.773783,0.19980069
801757436,3,1741276231263496686,0.10049855,-9.774382,0.21475583
801757446,3,1741276231273482311,0.106480606,-9.760324,0.2009971
801757456,3,1741276231283467259,0.10438689,-9.753743,0.200698
801757466,3,1741276231293452103,0.111864455,-9.757631,0.21445672
801757476,3,1741276231303437728,0.10887343,-9.776774,0.20967108
801757486,3,1741276231313422675,0.11515459,-9.761819,0.2105684
801757496,3,1741276231323407519,0.1058824,-9.756136,0.200698
801757505,3,1741276231333392363,0.10229317,-9.77139,0.20727827
801757515,3,1741276231343377988,0.1055833,-9.767801,0.2111666
801757525,3,1741276231353362936,0.09930214,-9.763614,0.200698
801757535,3,1741276231363347780,0.10857433,-9.76152,0.20727827
801757545,3,1741276231373333405,0.1058824,-9.763913,0.20428723
801757555,3,1741276231383318353,0.11306087,-9.766306,0.2000998
801757565,3,1741276231393303196,0.11006984,-9.753445,0.21266212
801757575,3,1741276231403288821,0.09810573,-9.760623,0.21894327
801757585,3,1741276231413273769,0.09960124,-9.76152,0.19980069
801757595,3,1741276231423257132,0.1061815,-9.771989,0.20697916
801757605,3,1741276231433242757,0.102592275,-9.7654085,0.20279172
801757615,3,1741276231443227705,0.10707881,-9.763314,0.20398813
801757625,3,1741276231453212549,0.11306087,-9.7704935,0.2114657
801757635,3,1741276231463198174,0.106480606,-9.766904,0.20638095
801757645,3,1741276231473183122,0.11156536,-9.761221,0.20937198
801757655,3,1741276231483167965,0.1160519,-9.762118,0.20249261
801757665,3,1741276231493153590,0.1061815,-9.764511,0.2117648
801757675,3,1741276231503138538,0.09990034,-9.760024,0.2114657
801757685,3,1741276231513123382,0.11425728,-9.754341,0.20638095
801757695,3,1741276231523109007,0.110368945,-9.766006,0.19591236
801757705,3,1741276231533093955,0.11844472,-9.77498,0.20608185
801757715,3,1741276231543078799,0.1160519,-9.766006,0.21475583
801757725,3,1741276231553064424,0.10049855,-9.754641,0.21774685
801757735,3,1741276231563049372,0.09361918,-9.764212,0.20219351
801757745,3,1741276231573034215,0.109471634,-9.765707,0.19980069
801757755,3,1741276231583019840,0.10199407,-9.7654085,0.20368902
801757765,3,1741276231593004788,0.11156536,-9.766306,0.20488544
801757775,3,1741276231602989632,0.11485548,-9.751948,0.2009971
801757785,3,1741276231612975257,0.109471634,-9.770194,0.2114657
801757795,3,1741276231622959424,0.104985096,-9.770792,0.21206391
801757805,3,1741276231632943382,0.10079765,-9.767801,0.20668006
801757815,3,1741276231643091507,0.11246266,-9.7681,0.19980069
801757825,3,1741276231653274684,0.118145615,-9.757033,0.212363
801757836,3,1741276231663458694,0.1058824,-9.759128,0.22103699
801757846,3,1741276231673471924,0.111266255,-9.757333,0.20697916
801757856,3,1741276231683458642,0.1058824,-9.759128,0.20757736
801757866,3,1741276231693443538,0.117547415,-9.766006,0.21385853
801757876,3,1741276231703428382,0.1055833,-9.762118,0.21415763
801757886,3,1741276231713414059,0.090628155,-9.762118,0.20279172
801757895,3,1741276231723398122,0.111864455,-9.7654085,0.21505493
801757905,3,1741276231733383642,0.11156536,-9.764511,0.21445672
801757915,3,1741276231743369372,0.1052842,-9.768699,0.21206391
801757925,3,1741276231753354267,0.1055833,-9.769297,0.20877378
801757935,3,1741276231763338278,0.10737792,-9.762118,0.20757736
801757945,3,1741276231773324580,0.11246266,-9.769895,0.19860429
801757955,3,1741276231783309528,0.103190474,-9.759128,0.19980069
801757965,3,1741276231793295205,0.10348958,-9.758828,0.22013968
801757975,3,1741276231803280101,0.10139586,-9.759426,0.20877378
801757985,3,1741276231813264944,0.111864455,-9.764212,0.20488544
801757995,3,1741276231823248955,0.117547415,-9.754641,0.19860429
801758005,3,1741276231833235257,0.10468599,-9.769297,0.20697916
801758015,3,1741276231843220205,0.116650105,-9.760623,0.19800608
801758025,3,1741276231853205882,0.10767702,-9.752248,0.2114657
801758035,3,1741276231863190778,0.10827523,-9.757033,0.2114657
801758045,3,1741276231873175622,0.1061815,-9.753145,0.19920248
801758055,3,1741276231883159632,0.09840483,-9.763314,0.19501504
801758065,3,1741276231893145934,0.11724831,-9.756136,0.20458634
801758075,3,1741276231903130882,0.093918286,-9.760324,0.20458634
801758085,3,1741276231913116559,0.10468599,-9.763614,0.20937198
801758095,3,1741276231923101455,0.1058824,-9.762716,0.20039889
801758105,3,1741276231933086299,0.10887343,-9.755837,0.20338993
801758115,3,1741276231943071976,0.111266255,-9.763913,0.20398813
801758125,3,1741276231953056872,0.10857433,-9.759726,0.20967108
801758135,3,1741276231963041715,0.10767702,-9.780363,0.20518455
801758145,3,1741276231973027392,0.103190474,-9.741779,0.2108675
801758155,3,1741276231983012288,0.10468599,-9.757631,0.20488544
801758165,3,1741276231992997132,0.101694964,-9.765707,0.21415763
801758175,3,1741276232002982809,0.10468599,-9.760024,0.20787647
801758185,3,1741276232012967705,0.116351,-9.762417,0.20697916
801758195,3,1741276232022952549,0.096311115,-9.755239,0.21625134
801758205,3,1741276232032938226,0.11216356,-9.761819,0.21475583
801758215,3,1741276232042923122,0.09990034,-9.761819,0.20039889
801758225,3,1741276232052907965,0.11246266,-9.7609215,0.21595225
801758235,3,1741276232062893642,0.10827523,-9.773185,0.20638095
801758245,3,1741276232072878538,0.10977074,-9.77139,0.20757736
801758255,3,1741276232082863382,0.098703936,-9.771989,0.20638095
801758265,3,1741276232092849059,0.11425728,-9.771091,0.19740787
801758275,3,1741276232102833955,0.104087785,-9.759426,0.20578274
801758285,3,1741276232112818799,0.10109676,-9.758529,0.21326032
801758295,3,1741276232122804476,0.11306087,-9.763614,0.20129621
801758305,3,1741276232132789372,0.10707881,-9.757033,0.20309082
801758315,3,1741276232142774215,0.095413804,-9.766904,0.20697916
801758325,3,1741276232152759892,0.10917253,-9.769596,0.20638095
801758335,3,1741276232162744788,0.109471634,-9.761819,0.19980069
801758345,3,1741276232172729632,0.104985096,-9.757931,0.21984059
801758355,3,1741276232182715309,0.10348958,-9.760024,0.20877378
801758365,3,1741276232192700205,0.10767702,-9.760324,0.19621146
801758375,3,1741276232202685049,0.11724831,-9.757033,0.20578274
801758385,3,1741276232212670726,0.10229317,-9.766604,0.20219351
801758395,3,1741276232222654788,0.10917253,-9.776774,0.21206391
801758405,3,1741276232232640309,0.10707881,-9.756136,0.21326032
801758415,3,1741276232242626038,0.10767702,-9.764511,0.20578274
801758425,3,1741276232252610934,0.10767702,-9.75165,0.21206391
801758435,3,1741276232262595778,0.09900304,-9.767203,0.2015953
801758445,3,1741276232272581455,0.10378868,-9.747462,0.21385853
801758455,3,1741276232282566351,0.110368945,-9.769895,0.20937198
801758465,3,1741276232292551194,0.11006984,-9.764511,0.20428723
801758475,3,1741276232302536872,0.10199407,-9.758529,0.21326032
801758485,3,1741276232312521767,0.1061815,-9.75494,0.20757736
801758495,3,1741276232322506611,0.10737792,-9.756136,0.2105684
801758505,3,1741276232332492288,0.11066805,-9.760024,0.20368902
801758515,3,1741276232342477184,0.10677971,-9.762716,0.20398813
801758525,3,1741276232352462028,0.10707881,-9.7654085,0.2000998
801758535,3,1741276232362447705,0.10229317,-9.777372,0.21385853
801758545,3,1741276232372432601,0.1055833,-9.763314,0.20787647
801758555,3,1741276232382417444,0.10827523,-9.765707,0.19980069
801758565,3,1741276232392401455,0.11216356,-9.768399,0.19830517
801758574,3,1741276232402387757,0.1052842,-9.766904,0.20488544
801758584,3,1741276232412372705,0.09421739,-9.746565,0.19890338
801758594,3,1741276232422356715,0.106480606,-9.760024,0.2105684
801758604,3,1741276232432343382,0.096909314,-9.771091,0.20219351
801758614,3,1741276232442328382,0.10468599,-9.751051,0.19232312
801758624,3,1741276232452313226,0.10468599,-9.758828,0.20398813
801758634,3,1741276232462298903,0.10887343,-9.7704935,0.20697916
801758644,3,1741276232472283799,0.10049855,-9.767203,0.19710876
801758654,3,1741276232482268642,0.10857433,-9.766306,0.20967108
801758664,3,1741276232492254319,0.10468599,-9.7501545,0.20219351
801758674,3,1741276232502239215,0.10707881,-9.771689,0.21834506
801758684,3,1741276232512224059,0.10737792,-9.751948,0.20578274
801758694,3,1741276232522209736,0.12083755,-9.752248,0.20817557
801758704,3,1741276232532194632,0.10468599,-9.768699,0.20219351
801758714,3,1741276232542179476,0.10887343,-9.771989,0.21296121
801758724,3,1741276232552165153,0.10438689,-9.769596,0.20907287
801758734,3,1741276232562150049,0.10707881,-9.750453,0.19411774
801758744,3,1741276232572134892,0.09601201,-9.760623,0.21505493
801758754,3,1741276232582120569,0.112761766,-9.755538,0.19651055
801758764,3,1741276232592105465,0.10827523,-9.769596,0.20249261
801758774,3,1741276232602089476,0.10857433,-9.762716,0.20877378
801758784,3,1741276232612075778,0.10917253,-9.770194,0.20039889
801758794,3,1741276232622060726,0.10977074,-9.753743,0.21565314
801758804,3,1741276232632045569,0.103190474,-9.765707,0.2114657
801758814,3,1741276232642031247,0.11515459,-9.756136,0.20668006
801758824,3,1741276232652016142,0.10229317,-9.763614,0.2111666
801758834,3,1741276232662000986,0.112761766,-9.748658,0.20638095
801758844,3,1741276232671986663,0.1160519,-9.751051,0.19351953
801758854,3,1741276232681971559,0.11335997,-9.757931,0.2114657
801758864,3,1741276232691956403,0.11096715,-9.771989,0.21655045
801758874,3,1741276232701942080,0.10109676,-9.765109,0.21924238
801758884,3,1741276232711926976,0.11455639,-9.7501545,0.2114657
801758894,3,1741276232721911819,0.09451649,-9.764811,0.19680966
801758904,3,1741276232731897497,0.111266255,-9.762118,0.19740787
801758914,3,1741276232741881559,0.10707881,-9.763314,0.20189442
801758924,3,1741276232751867861,0.11216356,-9.765109,0.2108675
801758934,3,1741276232761852809,0.1160519,-9.751948,0.21744776
801758944,3,1741276232771837653,0.10079765,-9.763614,0.19561325
801758954,3,1741276232781823330,0.11335997,-9.752248,0.20907287
801758964,3,1741276232791808226,0.111864455,-9.759128,0.20608185
801758974,3,1741276232801793069,0.100199446,-9.753743,0.21595225
801758984,3,1741276232811777913,0.097806625,-9.765707,0.20279172
801758994,3,1741276232821761924,0.1055833,-9.771091,0.20847467
801759004,3,1741276232831748590,0.11246266,-9.753743,0.20458634
801759014,3,1741276232841732809,0.09840483,-9.7704935,0.21445672
801759024,3,1741276232851892549,0.09571291,-9.7609215,0.20727827
801759034,3,1741276232862075726,0.10468599,-9.767203,0.20967108
801759044,3,1741276232872259788,0.102592275,-9.7654085,0.21296121
801759054,3,1741276232882261455,0.10797612,-9.763314,0.19710876
801759064,3,1741276232892246299,0.09990034,-9.766604,0.200698
801759074,3,1741276232902232028,0.10438689,-9.762716,0.21595225
801759084,3,1741276232912216872,0.104087785,-9.762118,0.20309082
801759094,3,1741276232922201715,0.1061815,-9.767502,0.20458634
801759104,3,1741276232932187444,0.104087785,-9.761819,0.20638095
801759114,3,1741276232942171403,0.11306087,-9.766006,0.20727827
801759124,3,1741276232952157861,0.11455639,-9.758529,0.20727827
801759134,3,1741276232962141819,0.103190474,-9.758828,0.20398813
801759144,3,1741276232972127444,0.09960124,-9.771689,0.2015953
801759154,3,1741276232982111403,0.111266255,-9.754043,0.2009971
801759164,3,1741276232992097861,0.111864455,-9.757631,0.2000998
801759174,3,1741276233002083590,0.106480606,-9.757333,0.20668006
801759184,3,1741276233012068434,0.1052842,-9.765707,0.20219351
801759194,3,1741276233022052392,0.10857433,-9.764212,0.20279172
801759204,3,1741276233032038851,0.104087785,-9.764811,0.20189442
801759214,3,1741276233042023694,0.101694964,-9.74836,0.20279172
801759224,3,1741276233052008538,0.11156536,-9.767203,0.20398813
801759234,3,1741276233061994267,0.10049855,-9.754341,0.19980069
801759244,3,1741276233071979111,0.10229317,-9.770792,0.20279172
801759254,3,1741276233081963955,0.10199407,-9.759426,0.21625134
801759264,3,1741276233091949684,0.10767702,-9.766904,0.20309082
801759274,3,1741276233101934528,0.11425728,-9.753743,0.20787647
801759284,3,1741276233111919372,0.11096715,-9.762118,0.20249261
801759294,3,1741276233121905101,0.11724831,-9.756435,0.20668006
801759304,3,1741276233131889059,0.1058824,-9.763614,0.20727827
801759314,3,1741276233141696455,0.10109676,-9.763314,0.20608185
801759324,3,1741276233151879840,0.1058824,-9.767502,0.2117648
801759334,3,1741276233162039580,0.111864455,-9.760324,0.20907287
801759344,3,1741276233172023538,0.11425728,-9.772886,0.20249261
801759354,3,1741276233182007497,0.09720842,-9.769895,0.2204388
801759364,3,1741276233192190674,0.101694964,-9.757333,0.20997019
801759374,3,1741276233202373955,0.10917253,-9.772587,0.20937198
801759385,3,1741276233212558017,0.101694964,-9.753743,0.20189442
801759395,3,1741276233222742080,0.109471634,-9.768997,0.21385853
801759405,3,1741276233232904267,0.09960124,-9.753743,0.20787647
801759415,3,1741276233242900934,0.103190474,-9.7704935,0.20428723
801759425,3,1741276233252886559,0.10797612,-9.74477,0.19890338
801759435,3,1741276233262871403,0.104985096,-9.766904,0.20847467
801759445,3,1741276233272856247,0.106480606,-9.764511,0.20129621
801759455,3,1741276233282841194,0.10229317,-9.758828,0.20608185
801759465,3,1741276233292826819,0.101694964,-9.767502,0.20817557
801759475,3,1741276233302811663,0.10677971,-9.762118,0.21026929
801759485,3,1741276233312796403,0.11515459,-9.750453,0.20847467
801759495,3,1741276233322780361,0.10977074,-9.759726,0.20398813
801759505,3,1741276233332640361,0.101694964,-9.751948,0.20578274
801759515,3,1741276233342752549,0.1061815,-9.760623,0.20398813
801759525,3,1741276233352760726,0.115752794,-9.769596,0.20368902
801759535,3,1741276233362943903,0.101694964,-9.753445,0.21804596
801759545,3,1741276233373080205,0.10737792,-9.76152,0.20578274
801759555,3,1741276233383099319,0.10079765,-9.769596,0.19770697
801759565,3,1741276233393282497,0.10079765,-9.752547,0.200698
801759576,3,1741276233403465882,0.10109676,-9.763614,0.20249261
801759586,3,1741276233413602861,0.1052842,-9.77498,0.20578274
801759596,3,1741276233423610257,0.10229317,-9.763314,0.20877378
801759606,3,1741276233433757809,0.11156536,-9.745368,0.20039889
801759616,3,1741276233443778330,0.10289137,-9.77139,0.19441684
801759626,3,1741276233453762757,0.10348958,-9.767502,0.20697916
801759636,3,1741276233463748955,0.11096715,-9.760324,0.19680966
801759646,3,1741276233473733799,0.10827523,-9.756435,0.200698
801759656,3,1741276233483718851,0.11455639,-9.75823,0.21625134
801759666,3,1741276233493704372,0.109471634,-9.763913,0.20877378
801759676,3,1741276233503689215,0.11425728,-9.757631,0.2000998
801759686,3,1741276233513674267,0.115752794,-9.7681,0.20757736
801759696,3,1741276233523659788,0.1160519,-9.774082,0.20249261
801759706,3,1741276233533644424,0.103190474,-9.763614,0.200698
801759716,3,1741276233543628382,0.09960124,-9.759426,0.21505493
801759726,3,1741276233553647601,0.10797612,-9.763614,0.20847467
801759736,3,1741276233563772184,0.10887343,-9.757333,0.19740787
801759746,3,1741276233573720830,0.09990034,-9.760024,0.20458634
801759756,3,1741276233583598747,0.10977074,-9.767801,0.2000998
801759766,3,1741276233593711611,0.11455639,-9.760024,0.20309082
801759776,3,1741276233603742444,0.10348958,-9.772886,0.20309082
801759786,3,1741276233613925622,0.09332009,-9.762716,0.20817557
801759796,3,1741276233624109111,0.10917253,-9.765707,0.20518455
801759806,3,1741276233634293174,0.116650105,-9.773783,0.20279172
801759817,3,1741276233644477236,0.10917253,-9.762118,0.20488544
801759827,3,1741276233654608799,0.10348958,-9.771689,0.19381863
801759837,3,1741276233664626299,0.1055833,-9.764811,0.1902294
801759847,3,1741276233674610830,0.10139586,-9.759128,0.2000998
801759857,3,1741276233684595569,0.09990034,-9.761819,0.212363
801759867,3,1741276233694581559,0.11216356,-9.761819,0.20727827
801759877,3,1741276233704566403,0.10827523,-9.751948,0.20368902
801759887,3,1741276233714550934,0.10887343,-9.754341,0.20279172
801759897,3,1741276233724487809,0.09332009,-9.752846,0.19980069
801759907,3,1741276233734412705,0.10229317,-9.757631,0.2114657
801759917,3,1741276233744513851,0.12173485,-9.768997,0.20309082
801759927,3,1741276233754497809,0.106480606,-9.759726,0.20129621
801759937,3,1741276233764552184,0.09720842,-9.761221,0.20129621
801759947,3,1741276233774641611,0.10079765,-9.771989,0.20578274
801759957,3,1741276233784695882,0.12053844,-9.766006,0.20937198
801759967,3,1741276233794879059,0.09990034,-9.763614,0.19980069
801759977,3,1741276233805062653,0.110368945,-9.764212,0.20668006
801759987,3,1741276233815152549,0.10977074,-9.759128,0.20578274
801759997,3,1741276233825206819,0.104985096,-9.77139,0.19800608
801760007,3,1741276233835389997,0.11784652,-9.755538,0.21326032
801760018,3,1741276233845479424,0.10468599,-9.756136,0.20697916
801760028,3,1741276233855485569,0.11216356,-9.77139,0.2105684
801760038,3,1741276233865503226,0.10887343,-9.765109,0.2117648
801760048,3,1741276233875487653,0.111266255,-9.759426,0.2015953
801760058,3,1741276233885472705,0.0951147,-9.753445,0.19172491
801760068,3,1741276233895458486,0.10139586,-9.764511,0.20937198
801760078,3,1741276233905443747,0.10767702,-9.757631,0.212363
801760088,3,1741276233915428642,0.111864455,-9.761819,0.20309082
801760097,3,1741276233925389163,0.10079765,-9.768997,0.20817557
801760107,3,1741276233935361038,0.10857433,-9.763614,0.21684955
801760118,3,1741276233945427028,0.1052842,-9.750453,0.2114657
801760128,3,1741276233955516455,0.1061815,-9.760024,0.20907287
801760138,3,1741276233965699632,0.115752794,-9.763016,0.21475583
801760148,3,1741276233975765622,0.111266255,-9.7501545,0.21714866
801760158,3,1741276233985843330,0.10767702,-9.76152,0.2105684
801760168,3,1741276233996026507,0.104087785,-9.756435,0.20279172
801760178,3,1741276234006210205,0.100199446,-9.760623,0.20428723
801760188,3,1741276234016276559,0.10378868,-9.7681,0.20338993
801760198,3,1741276234026236976,0.10917253,-9.762417,0.2105684
801760208,3,1741276234036255934,0.10468599,-9.757333,0.20697916
801760219,3,1741276234046439111,0.111864455,-9.772287,0.2000998
801760229,3,1741276234056622288,0.1061815,-9.76152,0.20757736
801760239,3,1741276234066664840,0.1061815,-9.7654085,0.2114657
801760249,3,1741276234076648799,0.11096715,-9.761819,0.19860429
801760259,3,1741276234086749944,0.10109676,-9.757333,0.21744776
801760269,3,1741276234096933122,0.112761766,-9.752547,0.20877378
801760279,3,1741276234106975674,0.0951147,-9.772587,0.20697916
801760289,3,1741276234116920257,0.09990034,-9.751051,0.20398813
801760299,3,1741276234127006872,0.11844472,-9.772287,0.21266212
801760309,3,1741276234137049424,0.106480606,-9.776774,0.19950159
801760319,3,1741276234147033382,0.10707881,-9.767801,0.20249261
801760329,3,1741276234157146351,0.11096715,-9.754341,0.20967108
801760339,3,1741276234167329528,0.12233306,-9.765707,0.20279172
801760349,3,1741276234177360361,0.112761766,-9.758828,0.19740787
801760360,3,1741276234187461507,0.11515459,-9.758529,0.19710876
801760370,3,1741276234197644684,0.10737792,-9.754641,0.20907287
801760380,3,1741276234207828538,0.10229317,-9.767502,0.19710876
801760390,3,1741276234217859580,0.100199446,-9.768997,0.20847467
801760400,3,1741276234227889788,0.10827523,-9.764811,0.21535404
801760410,3,1741276234237889840,0.11006984,-9.765109,0.21026929
801760420,3,1741276234247874684,0.11096715,-9.763016,0.19471595
801760430,3,1741276234257860205,0.11485548,-9.758828,0.20428723
801760440,3,1741276234267845257,0.1055833,-9.766604,0.20219351
801760450,3,1741276234277830101,0.12323037,-9.763016,0.19920248
801760460,3,1741276234287815622,0.11335997,-9.751948,0.20907287
801760470,3,1741276234297800674,0.098703936,-9.75823,0.19830517
801760480,3,1741276234307784840,0.10468599,-9.767203,0.20817557
801760490,3,1741276234317768799,0.11246266,-9.763913,0.20937198
801760500,3,1741276234327752861,0.10139586,-9.765109,0.21385853
801760510,3,1741276234337900882,0.118145615,-9.768997,0.2009971
801760520,3,1741276234348084788,0.10348958,-9.76152,0.2108675
801760530,3,1741276234358264476,0.10917253,-9.7681,0.2117648
801760540,3,1741276234368284267,0.10348958,-9.770194,0.20877378
801760550,3,1741276234378269267,0.10229317,-9.759726,0.20937198
801760560,3,1741276234388254111,0.10289137,-9.75823,0.20488544
801760570,3,1741276234398239684,0.09930214,-9.764811,0.20697916
801760580,3,1741276234408224684,0.104985096,-9.75494,0.2108675
801760590,3,1741276234418208799,0.09451649,-9.759426,0.18903299
801760600,3,1741276234428194319,0.1055833,-9.766306,0.19860429
801760610,3,1741276234438180205,0.111864455,-9.755239,0.20578274
801760620,3,1741276234448165205,0.117547415,-9.76152,0.21026929
801760630,3,1741276234458150049,0.104985096,-9.761221,0.20578274
801760640,3,1741276234468134892,0.11844472,-9.75494,0.21565314
801760650,3,1741276234478120465,0.10289137,-9.767502,0.20578274
801760660,3,1741276234488105465,0.111266255,-9.768997,0.200698
801760670,3,1741276234498090309,0.10438689,-9.76152,0.20548365
801760680,3,1741276234508074424,0.097806625,-9.759128,0.2111666
801760690,3,1741276234518058382,0.11724831,-9.757931,0.20817557
801760700,3,1741276234528042549,0.11365908,-9.775877,0.20578274
801760710,3,1741276234538026507,0.10677971,-9.755837,0.22372891
801760720,3,1741276234548151090,0.10049855,-9.763314,0.21355942
801760730,3,1741276234558334267,0.10707881,-9.758828,0.20548365
801760740,3,1741276234568329944,0.102592275,-9.766006,0.20309082
801760751,3,1741276234578466247,0.12502499,-9.760024,0.21415763
801760761,3,1741276234588649424,0.10468599,-9.7654085,0.20757736
801760771,3,1741276234598833434,0.11425728,-9.769297,0.20937198
801760781,3,1741276234609017497,0.109471634,-9.768997,0.19890338
801760791,3,1741276234619013226,0.111266255,-9.759128,0.21684955
801760801,3,1741276234629067184,0.1160519,-9.758529,0.20428723
801760811,3,1741276234639056976,0.1052842,-9.767203,0.20398813
801760821,3,1741276234649042653,0.10348958,-9.749855,0.20309082
801760831,3,1741276234659027549,0.10767702,-9.762118,0.21505493
801760841,3,1741276234669012392,0.111266255,-9.757631,0.20608185
801760851,3,1741276234678998069,0.10378868,-9.762118,0.21505493
801760861,3,1741276234688982965,0.09990034,-9.75165,0.20548365
801760871,3,1741276234698966976,0.10707881,-9.763913,0.20398813
801760881,3,1741276234708950934,0.10767702,-9.757033,0.2015953
801760891,3,1741276234718934997,0.098703936,-9.7609215,0.20249261
801760901,3,1741276234729047965,0.110368945,-9.7681,0.20249261
801760911,3,1741276234739231142,0.09601201,-9.769895,0.200698
801760922,3,1741276234749414372,0.096311115,-9.760024,0.2105684
801760932,3,1741276234759598434,0.100199446,-9.757631,0.19411774
801760942,3,1741276234769782497,0.1055833,-9.751948,0.19920248
801760952,3,1741276234779954788,0.111864455,-9.772886,0.20937198
801760962,3,1741276234789938747,0.09990034,-9.775877,0.20548365
801760972,3,1741276234799993851,0.09451649,-9.771091,0.19980069
801760982,3,1741276234809978642,0.1052842,-9.749855,0.20697916
801760992,3,1741276234819962601,0.10199407,-9.767203,0.21266212
801761002,3,1741276234830087288,0.116650105,-9.767203,0.21355942
801761012,3,1741276234840270569,0.09750752,-9.762417,0.20518455
801761023,3,1741276234850440153,0.109471634,-9.755239,0.20338993
801761033,3,1741276234860492184,0.10438689,-9.774382,0.21535404
801761043,3,1741276234870477132,0.1055833,-9.7704935,0.20518455
801761053,3,1741276234880462757,0.09930214,-9.756435,0.20548365
801761063,3,1741276234890447497,0.10737792,-9.764811,0.21026929
801761073,3,1741276234900431455,0.11156536,-9.753743,0.20189442
801761083,3,1741276234910415622,0.11066805,-9.758529,0.21475583
801761093,3,1741276234920399580,0.10049855,-9.757033,0.20129621
801761103,3,1741276234930512549,0.10348958,-9.766904,0.2105684
801761113,3,1741276234940695726,0.11395818,-9.761221,0.2111666
801761123,3,1741276234950879163,0.104087785,-9.75494,0.2105684
801761133,3,1741276234961063226,0.10977074,-9.780962,0.19920248
801761143,3,1741276234971247288,0.10289137,-9.75135,0.20338993
801761154,3,1741276234981431351,0.109471634,-9.757033,0.20697916
801761164,3,1741276234991615413,0.10199407,-9.7681,0.2015953
801761174,3,1741276235001799476,0.1058824,-9.77468,0.20219351
801761184,3,1741276235011924684,0.096311115,-9.755837,0.21385853
801761194,3,1741276235021935726,0.11455639,-9.760024,0.19651055
801761204,3,1741276235032000934,0.11156536,-9.757333,0.19860429
801761214,3,1741276235041985517,0.10917253,-9.7704935,0.20488544
801761224,3,1741276235051971611,0.1058824,-9.758529,0.20757736
801761234,3,1741276235061956715,0.10737792,-9.754043,0.20398813
801761244,3,1741276235071942184,0.10797612,-9.77139,0.21535404
801761254,3,1741276235081926767,0.102592275,-9.768399,0.21774685
801761264,3,1741276235091887184,0.11246266,-9.768699,0.20398813
801761274,3,1741276235101788590,0.09720842,-9.760623,0.20398813
801761284,3,1741276235111901455,0.10977074,-9.763614,0.20368902
801761294,3,1741276235121908851,0.112761766,-9.760324,0.19770697
801761304,3,1741276235132092028,0.119042926,-9.75165,0.19740787
801761314,3,1741276235142204892,0.10468599,-9.75494,0.20219351
801761324,3,1741276235152247444,0.115752794,-9.772886,0.20249261
801761334,3,1741276235162373122,0.104087785,-9.761221,0.20578274
801761344,3,1741276235172380882,0.10109676,-9.770194,0.20189442
801761354,3,1741276235182365726,0.11844472,-9.759726,0.20608185
801761364,3,1741276235192350569,0.10199407,-9.7609215,0.20757736
801761374,3,1741276235202335726,0.11156536,-9.764811,0.20877378
801761384,3,1741276235212320830,0.11006984,-9.757033,0.2108675
801761394,3,1741276235222304788,0.11216356,-9.760623,0.21625134
801761404,3,1741276235232241767,0.10049855,-9.771091,0.2117648
801761414,3,1741276235242166767,0.115752794,-9.766006,0.20458634
801761424,3,1741276235252244476,0.1058824,-9.7654085,0.20279172
801761434,3,1741276235262322184,0.10977074,-9.76152,0.20638095
801761445,3,1741276235272505361,0.10677971,-9.755239,0.20398813
801761455,3,1741276235282583069,0.115752794,-9.767502,0.21445672
801761465,3,1741276235292613903,0.10289137,-9.76152,0.20548365
801761475,3,1741276235302703330,0.09601201,-9.766604,0.212363
801761485,3,1741276235312714788,0.12083755,-9.761819,0.21565314
801761495,3,1741276235322826611,0.10468599,-9.760623,0.19920248
801761505,3,1741276235333009788,0.10977074,-9.766604,0.2009971
801761515,3,1741276235343193434,0.111864455,-9.759128,0.2000998
801761525,3,1741276235353377497,0.10917253,-9.768997,0.20279172
801761536,3,1741276235363561559,0.10199407,-9.771689,0.20757736
801761546,3,1741276235373745622,0.1160519,-9.7654085,0.21266212
801761556,3,1741276235383827497,0.09571291,-9.756435,0.20279172
801761566,3,1741276235393815257,0.10468599,-9.766604,0.20997019
801761576,3,1741276235403800569,0.09900304,-9.764212,0.20428723
801761586,3,1741276235413785361,0.1058824,-9.762118,0.2105684
801761596,3,1741276235423770049,0.11485548,-9.759726,0.20697916
801761606,3,1741276235433861142,0.104985096,-9.764511,0.19950159
801761616,3,1741276235444044319,0.10977074,-9.756435,0.20189442
801761626,3,1741276235454228017,0.11545369,-9.7609215,0.19890338
801761636,3,1741276235464296976,0.11246266,-9.768997,0.20937198
801761646,3,1741276235474283799,0.1061815,-9.76152,0.20488544
801761656,3,1741276235484269007,0.10677971,-9.764212,0.20608185
801761666,3,1741276235494253330,0.11485548,-9.768399,0.20967108
801761676,3,1741276235504131351,0.098703936,-9.759726,0.20129621
801761686,3,1741276235514033017,0.09750752,-9.756136,0.20219351
801761696,3,1741276235524063851,0.1061815,-9.765707,0.2015953
801761706,3,1741276235534118122,0.11545369,-9.760024,0.20847467
801761716,3,1741276235544207549,0.10199407,-9.759128,0.212363
801761726,3,1741276235554390726,0.09990034,-9.7609215,0.19890338
801761737,3,1741276235564574476,0.119940236,-9.753445,0.20787647
801761747,3,1741276235574689788,0.11365908,-9.758529,0.19710876
801761757,3,1741276235584707444,0.1061815,-9.759726,0.2009971
801761767,3,1741276235594692861,0.10229317,-9.762417,0.21834506
801761777,3,1741276235604678017,0.098703936,-9.759426,0.20877378
801761787,3,1741276235614662861,0.10378868,-9.772587,0.20488544
801761797,3,1741276235624648278,0.104985096,-9.767203,0.20697916
801761807,3,1741276235634633434,0.11006984,-9.763314,0.20578274
801761817,3,1741276235644618278,0.1052842,-9.763016,0.19800608
801761827,3,1741276235654603694,0.104087785,-9.769895,0.19950159
801761837,3,1741276235664588851,0.116650105,-9.756435,0.20697916
801761847,3,1741276235674573694,0.10438689,-9.769297,0.19262223
801761857,3,1741276235684557965,0.10917253,-9.757333,0.19621146
801761867,3,1741276235694543486,0.110368945,-9.7609215,0.2000998
801761877,3,1741276235704528955,0.10378868,-9.762716,0.20877378
801761887,3,1741276235714513226,0.101694964,-9.765707,0.20039889
801761897,3,1741276235724544163,0.103190474,-9.761819,0.20847467
801761907,3,1741276235734727340,0.100199446,-9.754641,0.20668006
801761917,3,1741276235744911142,0.11156536,-9.755239,0.20488544
801761927,3,1741276235755016455,0.11545369,-9.763614,0.20039889
801761937,3,1741276235765027080,0.11455639,-9.77498,0.19800608
801761947,3,1741276235775012549,0.09720842,-9.768699,0.20428723
801761957,3,1741276235784997028,0.102592275,-9.766306,0.20727827
801761967,3,1741276235794875049,0.111266255,-9.768699,0.2114657
801761977,3,1741276235804919007,0.11306087,-9.760024,0.18544376
801761987,3,1741276235814953069,0.104087785,-9.752547,0.20668006
801761997,3,1741276235825077913,0.12412767,-9.766604,0.21296121
801762007,3,1741276235835261090,0.10049855,-9.753145,0.22073789
801762018,3,1741276235845444944,0.10857433,-9.763614,0.20668006
801762028,3,1741276235855480049,0.10887343,-9.767801,0.20398813
801762038,3,1741276235865465934,0.11485548,-9.757333,0.20488544
801762048,3,1741276235875450778,0.11515459,-9.75494,0.20578274
801762058,3,1741276235885436299,0.10677971,-9.756136,0.20458634
801762068,3,1741276235895421351,0.10857433,-9.7681,0.22103699
801762078,3,1741276235905406194,0.10229317,-9.764212,0.20817557
801762087,3,1741276235915391715,0.106480606,-9.770792,0.2015953
801762097,3,1741276235925376767,0.1055833,-9.762716,0.20219351
801762107,3,1741276235935361611,0.10378868,-9.753743,0.19890338
801762117,3,1741276235945347132,0.11724831,-9.750453,0.20338993
801762127,3,1741276235955332184,0.10827523,-9.760024,0.20668006
801762137,3,1741276235965317028,0.09750752,-9.770792,0.19950159
801762147,3,1741276235975302549,0.1061815,-9.766306,0.20189442
801762157,3,1741276235985287601,0.10887343,-9.757931,0.19920248
801762167,3,1741276235995272444,0.10049855,-9.757931,0.20997019
801762177,3,1741276236005257965,0.1061815,-9.747462,0.20727827
801762187,3,1741276236015243017,0.106480606,-9.7609215,0.20608185
801762197,3,1741276236025227861,0.101694964,-9.771989,0.20548365
801762207,3,1741276236035213382,0.10707881,-9.753445,0.20309082
801762217,3,1741276236045198434,0.11395818,-9.771091,0.21296121
801762227,3,1741276236055183278,0.10977074,-9.750453,0.20368902
801762237,3,1741276236065168799,0.1160519,-9.773783,0.19740787
801762247,3,1741276236075153851,0.10289137,-9.755239,0.19740787
801762257,3,1741276236085138694,0.11365908,-9.756136,0.2117648
801762267,3,1741276236095124215,0.10438689,-9.75135,0.19501504
801762277,3,1741276236105109267,0.1160519,-9.749556,0.20817557
801762287,3,1741276236115094111,0.112761766,-9.769297,0.2009971
801762297,3,1741276236125078955,0.106480606,-9.754641,0.2117648
801762307,3,1741276236135064476,0.111266255,-9.756136,0.2117648
801762317,3,1741276236145049528,0.10468599,-9.760623,0.20518455
801762327,3,1741276236155034372,0.116351,-9.757931,0.20338993
801762337,3,1741276236165019892,0.10917253,-9.756734,0.20877378
801762347,3,1741276236175004944,0.10977074,-9.756136,0.19501504
801762357,3,1741276236184989788,0.10917253,-9.768399,0.20458634
801762367,3,1741276236194975309,0.101694964,-9.756435,0.21804596
801762377,3,1741276236204960361,0.10438689,-9.757333,0.2117648
801762387,3,1741276236214945205,0.10887343,-9.763614,0.21535404
801762397,3,1741276236224930726,0.10707881,-9.754043,0.20697916
801762407,3,1741276236234915778,0.10199407,-9.75823,0.21206391
801762417,3,1741276236244900622,0.1052842,-9.753145,0.20727827
801762427,3,1741276236254886142,0.100199446,-9.757931,0.20937198
801762437,3,1741276236264871194,0.106480606,-9.759426,0.20668006
801762447,3,1741276236274856038,0.0948156,-9.757931,0.20787647
801762457,3,1741276236284841559,0.10917253,-9.758529,0.21505493
801762467,3,1741276236294826611,0.10737792,-9.761819,0.20578274
801762477,3,1741276236304811455,0.1160519,-9.758828,0.19651055
801762487,3,1741276236314796976,0.106480606,-9.768399,0.20697916
801762497,3,1741276236324782028,0.11216356,-9.751948,0.20488544
801762507,3,1741276236334766872,0.11455639,-9.777073,0.19381863
801762517,3,1741276236344752392,0.10797612,-9.756435,0.20338993
801762527,3,1741276236354737444,0.11306087,-9.763016,0.19381863
801762537,3,1741276236364722288,0.104985096,-9.753145,0.19621146
801762547,3,1741276236374707809,0.1061815,-9.766904,0.20608185
801762557,3,1741276236384692861,0.10049855,-9.76152,0.20668006
801762567,3,1741276236394677705,0.10917253,-9.767502,0.20338993
801762577,3,1741276236404662549,0.10827523,-9.747163,0.20518455
801762587,3,1741276236414648069,0.117547415,-9.760024,0.19950159
801762597,3,1741276236424633122,0.104985096,-9.773783,0.19950159
801762607,3,1741276236434617965,0.10139586,-9.756734,0.2009971
801762617,3,1741276236444603486,0.09810573,-9.767801,0.20697916
801762627,3,1741276236454587861,0.10438689,-9.766604,0.20967108
801762637,3,1741276236464573694,0.11545369,-9.764811,0.20219351
801762647,3,1741276236474558955,0.10229317,-9.756734,0.20428723
801762657,3,1741276236484543799,0.112761766,-9.76152,0.21505493
801762667,3,1741276236494529319,0.10677971,-9.76152,0.20488544
801762677,3,1741276236504514372,0.1055833,-9.7609215,0.2000998
801762687,3,1741276236514499215,0.11425728,-9.76152,0.21415763
801762697,3,1741276236524484059,0.12023934,-9.759128,0.20997019
801762707,3,1741276236534469580,0.10049855,-9.765109,0.20877378
801762717,3,1741276236544454632,0.10887343,-9.758828,0.20937198
801762727,3,1741276236554439476,0.11365908,-9.77468,0.20518455
801762737,3,1741276236564424997,0.10887343,-9.763614,0.20458634
801762747,3,1741276236574410049,0.09930214,-9.764212,0.20608185
801762756,3,1741276236584394892,0.09720842,-9.745667,0.19920248
801762766,3,1741276236594380413,0.10229317,-9.766306,0.20638095
801762776,3,1741276236604365465,0.109471634,-9.762118,0.18634106
801762786,3,1741276236614350309,0.1058824,-9.757631,0.20488544
801762796,3,1741276236624335830,0.11934203,-9.756136,0.22462623
801762806,3,1741276236634320882,0.10827523,-9.762716,0.21206391
801762816,3,1741276236644305726,0.10468599,-9.740882,0.21206391
801762826,3,1741276236654291247,0.11844472,-9.765109,0.20847467
801762836,3,1741276236664276299,0.1061815,-9.764811,0.20279172
801762846,3,1741276236674261142,0.109471634,-9.752248,0.20608185
801762856,3,1741276236684246663,0.10348958,-9.760623,0.20309082
801762866,3,1741276236694231715,0.11096715,-9.772886,0.21326032
801762876,3,1741276236704216559,0.106480606,-9.746565,0.21984059
801762886,3,1741276236714202080,0.1058824,-9.76152,0.20458634
801762896,3,1741276236724187132,0.102592275,-9.764511,0.21415763
801762906,3,1741276236734171976,0.10707881,-9.765109,0.20578274
801762916,3,1741276236744157497,0.116650105,-9.749855,0.19980069
801762926,3,1741276236754142549,0.111266255,-9.742975,0.19262223
801762936,3,1741276236764127392,0.10707881,-9.763016,0.19471595
801762946,3,1741276236774112913,0.1061815,-9.758529,0.20398813
801762956,3,1741276236784097965,0.110368945,-9.762716,0.19381863
801762966,3,1741276236794082809,0.110368945,-9.757931,0.1911267
801762976,3,1741276236804067653,0.10827523,-9.766604,0.21714866
801762986,3,1741276236814053174,0.10917253,-9.762716,0.20727827
801762996,3,1741276236824038226,0.1061815,-9.767203,0.20757736
801763006,3,1741276236834023069,0.096909314,-9.761819,0.20189442
801763016,3,1741276236844008590,0.10348958,-9.763614,0.20488544
801763026,3,1741276236853993642,0.10827523,-9.768699,0.19920248
801763036,3,1741276236863978486,0.09212367,-9.768699,0.19860429
801763046,3,1741276236873964007,0.10887343,-9.757333,0.20787647
801763056,3,1741276236883949059,0.10887343,-9.761221,0.20458634
801763066,3,1741276236893933903,0.09750752,-9.76152,0.212363
801763076,3,1741276236903919424,0.10977074,-9.766006,0.19950159
801763086,3,1741276236913904476,0.09960124,-9.757033,0.21625134
801763096,3,1741276236923889319,0.10707881,-9.757931,0.2009971
801763106,3,1741276236933874840,0.111864455,-9.769596,0.20488544
801763116,3,1741276236943859892,0.10468599,-9.762716,0.20877378
801763126,3,1741276236953844736,0.104985096,-9.76152,0.20279172
801763136,3,1741276236963830257,0.11066805,-9.77468,0.20847467
801763146,3,1741276236973815309,0.11485548,-9.756435,0.20668006
801763156,3,1741276236983800153,0.1052842,-9.7704935,0.20488544
801763166,3,1741276236993785674,0.11216356,-9.770792,0.19980069
801763176,3,1741276237003770726,0.10707881,-9.765707,0.19860429
801763186,3,1741276237013755569,0.08733802,-9.747163,0.19232312
801763196,3,1741276237023741090,0.11066805,-9.762716,0.2114657
801763206,3,1741276237033726142,0.104087785,-9.76152,0.212363
801763216,3,1741276237043710986,0.10348958,-9.769297,0.20189442
801763226,3,1741276237053696507,0.1055833,-9.766306,0.20937198
801763236,3,1741276237063681559,0.10737792,-9.760324,0.20368902
801763246,3,1741276237073666403,0.111864455,-9.764212,0.20518455
801763256,3,1741276237083651247,0.11096715,-9.762118,0.20279172
801763266,3,1741276237093636767,0.116650105,-9.752547,0.21475583
801763276,3,1741276237103621819,0.10707881,-9.760024,0.20249261
801763286,3,1741276237113606663,0.104087785,-9.75494,0.20608185
801763296,3,1741276237123592184,0.11335997,-9.752248,0.20727827
801763306,3,1741276237133577236,0.11006984,-9.756136,0.2015953
801763316,3,1741276237143562080,0.10737792,-9.766006,0.20817557
801763326,3,1741276237153547601,0.1061815,-9.763614,0.20697916
801763336,3,1741276237163532653,0.095413804,-9.762118,0.20548365
801763346,3,1741276237173517497,0.109471634,-9.77498,0.21296121
801763356,3,1741276237183503017,0.12203395,-9.759426,0.20338993
801763366,3,1741276237193488069,0.11545369,-9.768399,0.20608185
801763376,3,1741276237203472913,0.11455639,-9.768699,0.20578274
801763386,3,1741276237213458434,0.100199446,-9.761221,0.20668006
801763396,3,1741276237223443486,0.109471634,-9.744172,0.20279172
801763406,3,1741276237233428330,0.11096715,-9.7704935,0.19740787
801763416,3,1741276237243413851,0.1052842,-9.764511,0.20608185
801763426,3,1741276237253398903,0.104087785,-9.760324,0.20697916
801763435,3,1741276237263383747,0.10797612,-9.776774,0.20757736
801763445,3,1741276237273367913,0.111266255,-9.7609215,0.20548365
801763455,3,1741276237283353747,0.11335997,-9.758529,0.20458634
801763465,3,1741276237293339007,0.110368945,-9.75494,0.20219351
801763475,3,1741276237303324528,0.11425728,-9.770792,0.2117648
801763485,3,1741276237313309580,0.11096715,-9.743275,0.20967108
801763495,3,1741276237323294424,0.09930214,-9.774082,0.2117648
801763505,3,1741276237333279944,0.112761766,-9.751051,0.21505493
801763515,3,1741276237343264997,0.10677971,-9.754641,0.20309082
801763525,3,1741276237353249840,0.10079765,-9.766006,0.21684955
801763535,3,1741276237363235361,0.10438689,-9.762417,0.21266212
801763545,3,1741276237373220413,0.09810573,-9.766904,0.20219351
801763555,3,1741276237383205257,0.1058824,-9.756435,0.20279172
801763565,3,1741276237393190778,0.11425728,-9.771091,0.20309082
801763575,3,1741276237403175830,0.10079765,-9.764212,0.20787647
801763585,3,1741276237413160674,0.1055833,-9.767502,0.21326032
801763595,3,1741276237423146194,0.0948156,-9.757631,0.19800608
801763605,3,1741276237433131247,0.11096715,-9.755239,0.2105684
801763615,3,1741276237443116090,0.09332009,-9.762417,0.19591236
801763625,3,1741276237453100934,0.10797612,-9.7609215,0.21565314
801763635,3,1741276237463086455,0.109471634,-9.7681,0.20727827
801763645,3,1741276237473071507,0.095413804,-9.755837,0.20219351
801763655,3,1741276237483056351,0.10109676,-9.763016,0.20727827
801763665,3,1741276237493041872,0.116351,-9.769895,0.20817557
801763675,3,1741276237503026924,0.11545369,-9.761221,0.20129621
801763685,3,1741276237513011767,0.11335997,-9.767502,0.20309082
801763695,3,1741276237522997288,0.10139586,-9.755239,0.20458634
801763705,3,1741276237532982340,0.11545369,-9.760623,0.21026929
801763715,3,1741276237542967184,0.1055833,-9.761221,0.2000998
801763725,3,1741276237552952705,0.10857433,-9.770792,0.20338993
801763735,3,1741276237562937757,0.10857433,-9.754043,0.20727827
801763745,3,1741276237572922601,0.111864455,-9.762417,0.20937198
801763755,3,1741276237582908122,0.110368945,-9.7681,0.20398813
801763765,3,1741276237592893174,0.116351,-9.759128,0.2111666
801763775,3,1741276237602878017,0.10109676,-9.75823,0.20608185
801763785,3,1741276237612863538,0.10199407,-9.754641,0.20428723
801763795,3,1741276237622847913,0.10468599,-9.764811,0.20458634
801763805,3,1741276237632702392,0.12502499,-9.763614,0.20787647
801763815,3,1741276237642791715,0.10797612,-9.75494,0.20039889
801763825,3,1741276237652974892,0.12023934,-9.759426,0.20967108
801763835,3,1741276237663158799,0.10737792,-9.77797,0.20279172
801763845,3,1741276237673329007,0.111864455,-9.772287,0.21774685
801763855,3,1741276237683346767,0.11096715,-9.75823,0.20309082
801763865,3,1741276237693331767,0.11066805,-9.75165,0.20817557
801763875,3,1741276237703316611,0.09122636,-9.762716,0.20129621
801763885,3,1741276237713302184,0.09810573,-9.752547,0.20817557
801763895,3,1741276237723287184,0.11156536,-9.762118,0.19561325
801763905,3,1741276237733272028,0.09990034,-9.758529,0.21296121
801763915,3,1741276237743257601,0.116650105,-9.758828,0.2108675
801763925,3,1741276237753242601,0.10767702,-9.757931,0.20488544
801763935,3,1741276237763227444,0.10109676,-9.764212,0.20727827
801763945,3,1741276237773213017,0.11485548,-9.766306,0.2108675
801763955,3,1741276237783198017,0.10468599,-9.766604,0.20219351
801763965,3,1741276237793182861,0.1052842,-9.766306,0.21266212
801763975,3,1741276237803168434,0.11365908,-9.763913,0.21385853
801763985,3,1741276237813153434,0.10857433,-9.7609215,0.19561325
801763995,3,1741276237823137549,0.10677971,-9.767203,0.20458634
801764005,3,1741276237833123538,0.11335997,-9.759128,0.20458634
801764015,3,1741276237843108694,0.11694921,-9.760324,0.20757736
801764025,3,1741276237853093538,0.1055833,-9.75165,0.20189442
801764035,3,1741276237863079111,0.115752794,-9.765707,0.2015953
801764045,3,1741276237873064111,0.111864455,-9.755538,0.21565314
801764055,3,1741276237883048955,0.10229317,-9.763913,0.21206391
801764065,3,1741276237893034528,0.119042926,-9.765109,0.20697916
801764075,3,1741276237903019528,0.119042926,-9.763314,0.2015953
801764085,3,1741276237913004372,0.11724831,-9.768699,0.212363
801764095,3,1741276237922989944,0.09571291,-9.762716,0.20608185
801764105,3,1741276237932974944,0.09960124,-9.763614,0.20817557
801764115,3,1741276237942959788,0.10797612,-9.766904,0.21326032
801764125,3,1741276237952944632,0.11485548,-9.746864,0.20578274
801764135,3,1741276237962930205,0.11455639,-9.757931,0.19740787
801764145,3,1741276237972915205,0.11335997,-9.769297,0.2105684
801764155,3,1741276237982900049,0.101694964,-9.7609215,0.21296121
801764165,3,1741276237992885622,0.10857433,-9.74806,0.20398813
801764175,3,1741276238002870622,0.11006984,-9.772587,0.20937198
801764185,3,1741276238012855465,0.116650105,-9.757631,0.21266212
801764195,3,1741276238022841038,0.109471634,-9.766006,0.20847467
801764205,3,1741276238032826038,0.11006984,-9.756734,0.2111666
801764215,3,1741276238042810882,0.1052842,-9.762118,0.21744776
801764225,3,1741276238052796455,0.10139586,-9.763614,0.20279172
801764235,3,1741276238062781455,0.10737792,-9.752248,0.21655045
801764245,3,1741276238072766299,0.10468599,-9.7609215,0.20548365
801764255,3,1741276238082751872,0.09900304,-9.755837,0.20997019
801764265,3,1741276238092736872,0.104985096,-9.760324,0.19740787
801764275,3,1741276238102721715,0.10767702,-9.761221,0.21026929
801764285,3,1741276238112707288,0.104087785,-9.756435,0.20668006
801764295,3,1741276238122692288,0.0951147,-9.759128,0.19381863
801764305,3,1741276238132677132,0.11425728,-9.755239,0.21415763
801764315,3,1741276238142662705,0.11096715,-9.766604,0.19651055
801764325,3,1741276238152647705,0.10737792,-9.759726,0.19980069
801764335,3,1741276238162632549,0.10857433,-9.763913,0.2105684
801764345,3,1741276238172617392,0.10737792,-9.769297,0.20548365
801764355,3,1741276238182602965,0.109471634,-9.758529,0.200698
801764365,3,1741276238192587965,0.092422776,-9.744172,0.19411774
801764375,3,1741276238202572809,0.09810573,-9.76152,0.21206391
801764385,3,1741276238212558382,0.106480606,-9.75823,0.20937198
801764395,3,1741276238222543382,0.10857433,-9.768997,0.19680966
801764405,3,1741276238232528226,0.12143575,-9.757033,0.19172491
801764415,3,1741276238242513799,0.10707881,-9.760024,0.2108675
801764425,3,1741276238252498799,0.112761766,-9.759726,0.20279172
801764435,3,1741276238262483642,0.1052842,-9.762417,0.19740787
801764445,3,1741276238272469215,0.10917253,-9.763614,0.20608185
801764455,3,1741276238282454215,0.10677971,-9.769895,0.20697916
801764465,3,1741276238292439059,0.09990034,-9.76152,0.2105684
801764475,3,1741276238302424632,0.09990034,-9.759128,0.21266212
801764485,3,1741276238312409632,0.111864455,-9.779466,0.19980069
801764494,3,1741276238322393747,0.09960124,-9.753445,0.19680966
801764504,3,1741276238332379736,0.10857433,-9.757931,0.200698
801764514,3,1741276238342364892,0.10289137,-9.764212,0.20398813
801764524,3,1741276238352349736,0.10139586,-9.758828,0.19740787
801764534,3,1741276238362335309,0.09720842,-9.753445,0.2114657
801764544,3,1741276238372320309,0.10139586,-9.758828,0.20967108
801764554,3,1741276238382305153,0.10707881,-9.757333,0.20608185
801764564,3,1741276238392290726,0.111266255,-9.761819,0.20458634
801764574,3,1741276238402275726,0.106480606,-9.749855,0.20727827
801764584,3,1741276238412260569,0.101694964,-9.767203,0.21026929
801764594,3,1741276238422246142,0.1160519,-9.763016,0.19950159
801764604,3,1741276238432231142,0.106480606,-9.749855,0.20787647
801764614,3,1741276238442215986,0.10438689,-9.762118,0.20877378
801764624,3,1741276238452200101,0.101694964,-9.766306,0.21415763
801764634,3,1741276238462186090,0.1061815,-9.769895,0.19651055
801764644,3,1741276238472171247,0.10977074,-9.757033,0.21655045
801764654,3,1741276238482156819,0.098703936,-9.759426,0.20458634
801764664,3,1741276238492141819,0.11335997,-9.771091,0.20937198
801764674,3,1741276238502126663,0.109471634,-9.763314,0.2009971
801764684,3,1741276238512112236,0.096311115,-9.76152,0.20219351
801764694,3,1741276238522096507,0.106480606,-9.756136,0.21684955
801764704,3,1741276238532081819,0.098703936,-9.763913,0.20847467
801764714,3,1741276238542067549,0.10737792,-9.758828,0.20697916
801764724,3,1741276238552052549,0.111266255,-9.762118,0.200698
801764734,3,1741276238562037392,0.109471634,-9.767203,0.20309082
801764744,3,1741276238572022965,0.10707881,-9.766604,0.20937198
801764754,3,1741276238582007965,0.11306087,-9.748658,0.20967108
801764764,3,1741276238591992809,0.11006984,-9.763314,0.20129621
801764774,3,1741276238601978382,0.102592275,-9.771091,0.20638095
801764784,3,1741276238611963382,0.11246266,-9.759726,0.19202402
801764794,3,1741276238621947497,0.1052842,-9.763016,0.19920248
801764804,3,1741276238631933330,0.10887343,-9.7609215,0.21026929
801764814,3,1741276238641918486,0.11365908,-9.770792,0.19950159
801764824,3,1741276238651904059,0.11545369,-9.764511,0.20219351
801764834,3,1741276238661889059,0.09900304,-9.763314,0.20877378
801764844,3,1741276238671873903,0.10378868,-9.7681,0.20847467
801764854,3,1741276238681858747,0.10139586,-9.752248,0.20249261
801764864,3,1741276238691844319,0.10977074,-9.751948,0.2009971
801764874,3,1741276238701829319,0.10139586,-9.768997,0.20817557
801764884,3,1741276238711814163,0.10468599,-9.764212,0.20877378
801764894,3,1741276238721799736,0.10378868,-9.748958,0.20937198
801764904,3,1741276238731784736,0.12472588,-9.758529,0.20189442
801764914,3,1741276238741769580,0.104087785,-9.762118,0.21445672
801764924,3,1741276238751755153,0.10707881,-9.761221,0.19980069
801764934,3,1741276238761740153,0.109471634,-9.764511,0.2114657
801764944,3,1741276238771724997,0.116351,-9.762417,0.2117648
801764954,3,1741276238781710569,0.09601201,-9.776774,0.20877378
801764964,3,1741276238791695569,0.10049855,-9.761221,0.19890338
801764974,3,1741276238801680413,0.103190474,-9.758828,0.21266212
801764984,3,1741276238811665986,0.10199407,-9.766306,0.22372891
801764994,3,1741276238821650257,0.09810573,-9.763614,0.20608185
801765004,3,1741276238831739788,0.116351,-9.766604,0.19351953
801765014,3,1741276238841922965,0.10229317,-9.749556,0.21206391
801765024,3,1741276238852106924,0.111266255,-9.7681,0.20129621
801765034,3,1741276238862171455,0.09930214,-9.766306,0.20727827
801765044,3,1741276238872163799,0.10767702,-9.75823,0.19920248
801765054,3,1741276238882148642,0.11156536,-9.755837,0.20129621
801765064,3,1741276238892134267,0.11156536,-9.765707,0.20219351
801765074,3,1741276238902118434,0.1052842,-9.760623,0.20398813
801765084,3,1741276238911937601,0.09750752,-9.76152,0.20189442
801765094,3,1741276238922073903,0.11156536,-9.762118,0.20039889
801765104,3,1741276238932257080,0.12352947,-9.75494,0.2000998
801765115,3,1741276238942441090,0.10378868,-9.760324,0.20249261
801765125,3,1741276238952620986,0.1061815,-9.757033,0.20787647
801765135,3,1741276238962617288,0.09990034,-9.759426,0.19980069
801765145,3,1741276238972602132,0.10468599,-9.75165,0.21206391
801765155,3,1741276238982587809,0.10468599,-9.747163,0.19441684
801765165,3,1741276238992572705,0.10767702,-9.763314,0.20249261
801765175,3,1741276239002557549,0.10348958,-9.758828,0.20817557
801765185,3,1741276239012543226,0.12263216,-9.762118,0.20428723
801765195,3,1741276239022527288,0.11306087,-9.770194,0.20458634
801765205,3,1741276239032512809,0.104985096,-9.757931,0.20668006
801765215,3,1741276239042498538,0.103190474,-9.751051,0.21804596
801765225,3,1741276239052483434,0.11784652,-9.748958,0.21296121
801765235,3,1741276239062468278,0.10977074,-9.757931,0.20398813
801765245,3,1741276239072453955,0.10737792,-9.757033,0.20189442
801765255,3,1741276239082438851,0.109471634,-9.748958,0.20338993
801765265,3,1741276239092423694,0.11365908,-9.759426,0.20428723
801765275,3,1741276239102409372,0.109471634,-9.762716,0.20039889
801765284,3,1741276239112394267,0.110368945,-9.763016,0.19830517
801765294,3,1741276239122378278,0.103190474,-9.772287,0.21565314
801765304,3,1741276239132364424,0.11455639,-9.768997,0.20997019
801765314,3,1741276239142349372,0.10707881,-9.759128,0.21475583
801765324,3,1741276239152335049,0.10289137,-9.768399,0.20279172
801765334,3,1741276239162319944,0.10887343,-9.770194,0.19740787
801765344,3,1741276239172304788,0.1061815,-9.766006,0.20039889
801765354,3,1741276239182289632,0.10468599,-9.761819,0.21684955
801765364,3,1741276239192275309,0.104087785,-9.767502,0.21266212
801765374,3,1741276239202260205,0.1052842,-9.752846,0.18634106
801765384,3,1741276239212245049,0.10707881,-9.757931,0.20967108
801765394,3,1741276239222230726,0.10827523,-9.760024,0.20488544
801765404,3,1741276239232215622,0.112761766,-9.763314,0.20727827
801765414,3,1741276239242200465,0.09960124,-9.771989,0.20787647
801765424,3,1741276239252186142,0.11096715,-9.767203,0.21296121
801765434,3,1741276239262171038,0.10289137,-9.767203,0.20129621
801765444,3,1741276239272155882,0.101694964,-9.76152,0.20787647
801765454,3,1741276239282141559,0.104087785,-9.764511,0.20877378
801765464,3,1741276239292126455,0.10977074,-9.778868,0.20338993
801765474,3,1741276239302111299,0.1055833,-9.754341,0.19920248
801765484,3,1741276239312096976,0.10887343,-9.763913,0.19680966
801765494,3,1741276239322081038,0.11096715,-9.746565,0.20129621
801765504,3,1741276239332067184,0.11006984,-9.772886,0.20518455
801765514,3,1741276239342052132,0.11395818,-9.753743,0.21326032
801765524,3,1741276239352036976,0.11335997,-9.75165,0.20428723
801765534,3,1741276239362022653,0.10438689,-9.754341,0.1911267
801765544,3,1741276239372007549,0.09990034,-9.758828,0.20039889
801765554,3,1741276239381991559,0.10827523,-9.752248,0.20458634
801765564,3,1741276239391977861,0.10438689,-9.762118,0.19710876
801765574,3,1741276239401961976,0.10289137,-9.756136,0.19770697
801765584,3,1741276239411769372,0.11246266,-9.759726,0.20877378
801765594,3,1741276239421741663,0.100199446,-9.769297,0.19740787
801765604,3,1741276239431901403,0.111266255,-9.762417,0.19621146
801765614,3,1741276239442084580,0.11365908,-9.752846,0.20937198
801765624,3,1741276239452268642,0.1052842,-9.757333,0.2105684
801765635,3,1741276239462452705,0.09332009,-9.772587,0.20458634
801765645,3,1741276239472445517,0.11066805,-9.752248,0.21774685
801765655,3,1741276239482431247,0.11246266,-9.756734,0.21744776
801765665,3,1741276239492416090,0.116650105,-9.754043,0.20309082
801765675,3,1741276239502400934,0.11874382,-9.759726,0.21535404
801765684,3,1741276239512386663,0.104985096,-9.761819,0.20787647
801765694,3,1741276239522371507,0.09750752,-9.77468,0.212363
801765704,3,1741276239532356351,0.09810573,-9.753145,0.20458634
801765714,3,1741276239542342080,0.11425728,-9.764511,0.20398813
801765724,3,1741276239552326924,0.09272188,-9.77139,0.21385853
801765734,3,1741276239562311767,0.11156536,-9.761221,0.21714866
801765744,3,1741276239572297497,0.1055833,-9.742078,0.21565314
801765754,3,1741276239582282340,0.104985096,-9.746565,0.200698
801765764,3,1741276239592266299,0.104087785,-9.780962,0.21266212
801765774,3,1741276239602073694,0.10438689,-9.766904,0.21744776
801765784,3,1741276239612256976,0.10737792,-9.769895,0.20967108
801765795,3,1741276239622428434,0.10827523,-9.767801,0.19441684
801765805,3,1741276239632412392,0.10139586,-9.757931,0.21266212
801765815,3,1741276239642572132,0.09810573,-9.762417,0.19322042
801765825,3,1741276239652744944,0.11545369,-9.756734,0.20997019
801765835,3,1741276239662750622,0.111864455,-9.768699,0.20847467
801765845,3,1741276239672735517,0.10289137,-9.767203,0.2105684
801765855,3,1741276239682721194,0.10797612,-9.759726,0.20697916
801765865,3,1741276239692706038,0.109471634,-9.753445,0.19800608
801765875,3,1741276239702690934,0.09990034,-9.754043,0.21415763
801765885,3,1741276239712676611,0.1052842,-9.764811,0.20608185
801765895,3,1741276239722661455,0.10378868,-9.76152,0.21445672
801765905,3,1741276239732646247,0.11066805,-9.7609215,0.20548365
801765915,3,1741276239742630205,0.10917253,-9.759726,0.19980069
801765925,3,1741276239752616715,0.11246266,-9.7681,0.21505493
801765935,3,1741276239762601611,0.10468599,-9.753145,0.20757736
801765945,3,1741276239772587236,0.111864455,-9.755837,0.20548365
801765955,3,1741276239782571194,0.10229317,-9.772287,0.21505493
801765964,3,1741276239792389267,0.10827523,-9.763614,0.21744776
801765975,3,1741276239802554111,0.104985096,-9.757333,0.20398813
801765985,3,1741276239812713851,0.09900304,-9.75823,0.20578274
801765995,3,1741276239822697809,0.10229317,-9.763614,0.2009971
801766005,3,1741276239832857549,0.11455639,-9.768399,0.20578274
801766015,3,1741276239843017288,0.10199407,-9.757631,0.20877378
801766025,3,1741276239853004684,0.1058824,-9.767502,0.212363
801766035,3,1741276239863040309,0.09930214,-9.76152,0.20697916
801766045,3,1741276239873025049,0.1052842,-9.751051,0.21535404
801766055,3,1741276239883009163,0.11784652,-9.770792,0.20727827
801766065,3,1741276239892995674,0.11246266,-9.758529,0.20608185
801766075,3,1741276239902981299,0.11425728,-9.757631,0.212363
801766085,3,1741276239912966142,0.11156536,-9.767502,0.20997019
801766095,3,1741276239922950986,0.10139586,-9.760324,0.20877378
801766105,3,1741276239932935726,0.111864455,-9.75135,0.21625134
801766115,3,1741276239942919840,0.10887343,-9.750752,0.21026929
801766125,3,1741276239952906351,0.09810573,-9.754043,0.20279172
801766135,3,1741276239962891976,0.09840483,-9.758529,0.21535404
801766145,3,1741276239972876715,0.104087785,-9.770792,0.20368902
801766155,3,1741276239982860674,0.101694964,-9.74806,0.20727827
801766165,3,1741276239992691715,0.102592275,-9.765707,0.20817557
801766175,3,1741276240002839736,0.102592275,-9.767801,0.19710876
801766185,3,1741276240012823694,0.101694964,-9.766006,0.19531415
801766195,3,1741276240022807653,0.11096715,-9.765707,0.21894327
801766205,3,1741276240032650465,0.10229317,-9.764811,0.20428723
801766215,3,1741276240042833642,0.116351,-9.769297,0.19501504
801766225,3,1741276240053016819,0.11694921,-9.752248,0.20398813
801766235,3,1741276240063200309,0.109471634,-9.756136,0.19381863
801766245,3,1741276240073384372,0.102592275,-9.765109,0.19531415
801766256,3,1741276240083568434,0.12023934,-9.757931,0.21684955
801766266,3,1741276240093681872,0.11156536,-9.761819,0.20039889
801766276,3,1741276240103724424,0.10049855,-9.766306,0.19262223
801766286,3,1741276240113907601,0.1058824,-9.758828,0.20668006
801766296,3,1741276240124091090,0.12083755,-9.765707,0.20518455
801766306,3,1741276240134204528,0.10707881,-9.756136,0.21326032
801766316,3,1741276240144235361,0.10827523,-9.753145,0.20817557
801766327,3,1741276240154418538,0.097806625,-9.759726,0.19920248
801766337,3,1741276240164531403,0.10677971,-9.755538,0.20518455
801766347,3,1741276240174480049,0.104985096,-9.769297,0.20548365
801766356,3,1741276240184381455,0.11335997,-9.7704935,0.20967108
801766367,3,1741276240194482601,0.100199446,-9.753445,0.19950159
801766377,3,1741276240204525153,0.10468599,-9.756435,0.20458634
801766387,3,1741276240214626299,0.11545369,-9.757333,0.19441684
801766397,3,1741276240224633694,0.103190474,-9.763016,0.21684955
801766407,3,1741276240234816872,0.09750752,-9.752846,0.1911267
801766417,3,1741276240245000413,0.109471634,-9.754043,0.20847467
801766427,3,1741276240255184476,0.103190474,-9.760024,0.200698
801766437,3,1741276240265325882,0.104985096,-9.767203,0.20967108
801766447,3,1741276240275366611,0.103190474,-9.763314,0.19561325
801766457,3,1741276240285351507,0.111864455,-9.759726,0.2117648
801766467,3,1741276240295337392,0.11006984,-9.771989,0.21445672
801766477,3,1741276240305322601,0.115752794,-9.759128,0.20338993
801766487,3,1741276240315307601,0.118145615,-9.756136,0.21355942
801766497,3,1741276240325326819,0.1058824,-9.763614,0.19950159
801766508,3,1741276240335509997,0.09601201,-9.769596,0.20249261
801766518,3,1741276240345599424,0.10917253,-9.766904,0.20189442
801766528,3,1741276240355653694,0.10378868,-9.752846,0.20249261
801766538,3,1741276240365743122,0.11006984,-9.763016,0.19950159
801766548,3,1741276240375668226,0.0948156,-9.759726,0.21415763
801766558,3,1741276240385640205,0.10468599,-9.757333,0.21684955
801766568,3,1741276240395823382,0.10707881,-9.760623,0.20817557
801766578,3,1741276240406006559,0.111864455,-9.756136,0.20967108
801766588,3,1741276240416072549,0.10468599,-9.758828,0.20787647
801766598,3,1741276240426126819,0.10079765,-9.757931,0.21505493
801766608,3,1741276240436309997,0.10977074,-9.760324,0.19561325
801766619,3,1741276240446493694,0.10049855,-9.761819,0.20518455
801766629,3,1741276240456677757,0.10797612,-9.75165,0.20907287
801766639,3,1741276240466804528,0.10438689,-9.763016,0.19890338
801766649,3,1741276240476830778,0.10707881,-9.752248,0.20668006
801766659,3,1741276240486816142,0.10857433,-9.766604,0.2108675
801766669,3,1741276240496801715,0.1052842,-9.762417,0.20847467
801766679,3,1741276240506787080,0.10977074,-9.764811,0.20877378
801766689,3,1741276240516772288,0.11066805,-9.7609215,0.20697916
801766699,3,1741276240526757132,0.11006984,-9.753445,0.2009971
801766709,3,1741276240536742497,0.104087785,-9.760623,0.20847467
801766719,3,1741276240546727705,0.11395818,-9.757033,0.20638095
801766729,3,1741276240556712549,0.10827523,-9.7654085,0.21774685
801766739,3,1741276240566696872,0.109471634,-9.765109,0.21684955
801766749,3,1741276240576680830,0.1061815,-9.759128,0.20279172
801766759,3,1741276240586770569,0.11006984,-9.7704935,0.21894327
801766769,3,1741276240596813122,0.116650105,-9.771989,0.21266212
801766779,3,1741276240606914267,0.10707881,-9.758828,0.21505493
801766789,3,1741276240616945101,0.11096715,-9.763314,0.19830517
801766799,3,1741276240627069684,0.11425728,-9.765109,0.2009971
801766809,3,1741276240637252861,0.10767702,-9.753445,0.2117648
801766820,3,1741276240647436715,0.10977074,-9.762716,0.22013968
801766830,3,1741276240657620778,0.104985096,-9.765109,0.20338993
801766840,3,1741276240667804840,0.111864455,-9.754641,0.20877378
801766850,3,1741276240677835882,0.10767702,-9.765707,0.19890338
801766860,3,1741276240687948747,0.10827523,-9.749257,0.20937198
801766870,3,1741276240698131924,0.118145615,-9.775877,0.20548365
801766880,3,1741276240708231142,0.10887343,-9.763314,0.20428723
801766890,3,1741276240718236819,0.116650105,-9.768997,0.19980069
801766900,3,1741276240728221663,0.10857433,-9.747761,0.20697916
801766910,3,1741276240738207184,0.10737792,-9.750752,0.1902294
801766920,3,1741276240748192236,0.11874382,-9.764511,0.20638095
801766930,3,1741276240758176403,0.09840483,-9.765109,0.20937198
801766940,3,1741276240768042653,0.10707881,-9.7609215,0.20578274
801766950,3,1741276240777979736,0.10229317,-9.7609215,0.22342981
801766960,3,1741276240788088017,0.10468599,-9.740582,0.20458634
801766970,3,1741276240798269528,0.11365908,-9.763913,0.212363
801766981,3,1741276240808452705,0.10857433,-9.767801,0.21595225
801766991,3,1741276240818460101,0.11306087,-9.775578,0.2000998
801767001,3,1741276240828526090,0.10468599,-9.75823,0.20757736
801767011,3,1741276240838709267,0.10707881,-9.760324,0.20967108
801767021,3,1741276240848893226,0.1058824,-9.76152,0.212363
801767031,3,1741276240859077288,0.11485548,-9.7609215,0.21894327
801767041,3,1741276240869176194,0.10199407,-9.76152,0.20997019
801767051,3,1741276240879172340,0.1052842,-9.752248,0.19860429
801767061,3,1741276240889158330,0.10917253,-9.771689,0.20219351
801767071,3,1741276240899143382,0.11694921,-9.760324,0.19770697
801767081,3,1741276240909129007,0.109471634,-9.759726,0.20997019
801767091,3,1741276240919113174,0.10857433,-9.75823,0.20368902
801767101,3,1741276240929099007,0.11096715,-9.762118,0.20129621
801767111,3,1741276240939084059,0.09451649,-9.764811,0.200698
801767121,3,1741276240949068903,0.104985096,-9.752846,0.20219351
801767131,3,1741276240959052965,0.10109676,-9.772587,0.20907287
801767141,3,1741276240968883903,0.10767702,-9.764511,0.20428723
801767151,3,1741276240979003799,0.09960124,-9.747462,0.20458634
801767161,3,1741276240989184788,0.104087785,-9.771689,0.20668006
801767171,3,1741276240999367965,0.10917253,-9.765707,0.20937198
801767182,3,1741276241009551976,0.10378868,-9.750752,0.20817557
801767192,3,1741276241019547705,0.10468599,-9.763314,0.2114657
801767202,3,1741276241029537080,0.12323037,-9.762417,0.19980069
801767212,3,1741276241039522288,0.11066805,-9.769895,0.2111666
801767222,3,1741276241049507965,0.10229317,-9.761221,0.21026929
801767232,3,1741276241059492861,0.10707881,-9.7681,0.21475583
801767242,3,1741276241069476872,0.11066805,-9.760024,0.20548365
801767252,3,1741276241079463174,0.110368945,-9.756734,0.20548365
