acc_s001_004 Accelerometer Non-wakeup,STMicro,2025-03-06_18-37-32.144_TGW
imuTimestamp,accuracy(more=better),utcTimestamp(nanos),acc_x[m/s^2],acc_y[m/s^2],acc_z[m/s^2]
800981480,3,1741275455308038075,0.112761766,-9.762417,0.23449662
800981490,3,1741275455318021148,0.118145615,-9.767502,0.22941187
800981500,3,1741275455328005107,0.116351,-9.767801,0.23330021
800981510,3,1741275455337988179,0.122931264,-9.768699,0.24526432
800981520,3,1741275455347972138,0.11066805,-9.766604,0.24227329
800981530,3,1741275455357954325,0.1160519,-9.760024,0.23928227
800981540,3,1741275455367939013,0.119042926,-9.76152,0.23569304
800981550,3,1741275455377922971,0.11934203,-9.765707,0.23898315
800981560,3,1741275455387906929,0.11874382,-9.764511,0.24137598
800981570,3,1741275455397890002,0.11485548,-9.761819,0.24556342
800981580,3,1741275455407873961,0.119042926,-9.768399,0.22971097
800981590,3,1741275455417856148,0.12323037,-9.758529,0.22671995
800981600,3,1741275455427841252,0.11485548,-9.76152,0.23659034
800981610,3,1741275455437823440,0.12502499,-9.752248,0.24705894
800981620,3,1741275455447808127,0.1058824,-9.757631,0.24047868
800981630,3,1741275455457792086,0.11006984,-9.762118,0.22941187
800981640,3,1741275455467775159,0.118145615,-9.760623,0.23898315
800981650,3,1741275455477759117,0.111864455,-9.752846,0.24077778
800981660,3,1741275455487742190,0.11874382,-9.769297,0.23808585
800981670,3,1741275455497726148,0.11844472,-9.770792,0.2428715
800981680,3,1741275455507710107,0.11246266,-9.769895,0.23988047
800981690,3,1741275455517693179,0.119940236,-9.757631,0.23898315
800981700,3,1741275455527677138,0.115752794,-9.754043,0.24047868
800981710,3,1741275455537659325,0.124426775,-9.767502,0.23569304
800981720,3,1741275455547643857,0.11515459,-9.768699,0.23599213
800981730,3,1741275455557627815,0.12023934,-9.7704935,0.23090738
800981739,3,1741275455567610002,0.11485548,-9.7654085,0.23030917
800981749,3,1741275455577415627,0.11515459,-9.767502,0.232702
800981759,3,1741275455587573804,0.12323037,-9.763016,0.23928227
800981769,3,1741275455597567711,0.1271187,-9.765109,0.232702
800981780,3,1741275455607749117,0.112761766,-9.759128,0.232702
800981790,3,1741275455617930627,0.12532409,-9.763016,0.2428715
800981800,3,1741275455628112919,0.11246266,-9.758529,0.24137598
800981810,3,1741275455638295211,0.119042926,-9.763614,0.23629123
800981820,3,1741275455648477502,0.12771691,-9.7704935,0.23629123
800981831,3,1741275455658636669,0.10707881,-9.770194,0.24137598
800981841,3,1741275455668622086,0.116650105,-9.762716,0.23599213
800981850,3,1741275455678605263,0.10767702,-9.773783,0.23868406
800981860,3,1741275455688589221,0.09421739,-9.763314,0.24825534
800981870,3,1741275455698573075,0.116351,-9.766904,0.23718855
800981880,3,1741275455708556252,0.10707881,-9.764811,0.23419751
800981890,3,1741275455718540107,0.11964113,-9.760024,0.23629123
800981900,3,1741275455728523284,0.122931264,-9.772587,0.24047868
800981910,3,1741275455738507242,0.111864455,-9.766006,0.2434697
800981920,3,1741275455748491096,0.11694921,-9.765707,0.23958136
800981930,3,1741275455758474273,0.116351,-9.761221,0.23090738
800981940,3,1741275455768458127,0.12352947,-9.763614,0.23629123
800981950,3,1741275455778441096,0.117547415,-9.763314,0.23928227
800981960,3,1741275455788423284,0.1160519,-9.763614,0.24047868
800981970,3,1741275455798252450,0.116650105,-9.772287,0.23898315
800981980,3,1741275455808398700,0.119940236,-9.764511,0.23479572
800981990,3,1741275455818380888,0.11306087,-9.771989,0.24556342
800982000,3,1741275455828538857,0.12263216,-9.782457,0.24227329
800982011,3,1741275455838720419,0.1160519,-9.758828,0.25393832
800982021,3,1741275455848875836,0.11216356,-9.7704935,0.23659034
800982031,3,1741275455858897711,0.12023934,-9.768399,0.24436702
800982041,3,1741275455868881513,0.11395818,-9.766604,0.24077778
800982051,3,1741275455878864742,0.118145615,-9.7609215,0.23808585
800982061,3,1741275455888848544,0.118145615,-9.763913,0.23449662
800982071,3,1741275455898831773,0.116351,-9.768699,0.22761725
800982081,3,1741275455908815419,0.11934203,-9.76152,0.24975087
800982091,3,1741275455918797607,0.12233306,-9.771989,0.24227329
800982101,3,1741275455928783075,0.116351,-9.7704935,0.2425724
800982111,3,1741275455938766304,0.12113664,-9.768699,0.23479572
800982121,3,1741275455948750107,0.12263216,-9.768399,0.2440679
800982131,3,1741275455958733336,0.11425728,-9.759726,0.23958136
800982141,3,1741275455968716982,0.10707881,-9.762417,0.2416751
800982151,3,1741275455978687398,0.11335997,-9.767203,0.23659034
800982160,3,1741275455988540054,0.11934203,-9.757631,0.23479572
800982171,3,1741275455998721461,0.10767702,-9.757631,0.23868406
800982181,3,1741275456008855992,0.10827523,-9.769895,0.23958136
800982191,3,1741275456018838179,0.11216356,-9.764811,0.24945176
800982201,3,1741275456028996148,0.12592229,-9.762716,0.23778675
800982211,3,1741275456039144846,0.124426775,-9.765707,0.24197419
800982221,3,1741275456049173492,0.11455639,-9.760623,0.24197419
800982231,3,1741275456059157242,0.10827523,-9.770194,0.24436702
800982241,3,1741275456069140523,0.12143575,-9.763314,0.23539393
800982251,3,1741275456079124273,0.12562318,-9.764212,0.23539393
800982261,3,1741275456089107554,0.11425728,-9.763314,0.23838496
800982271,3,1741275456099091513,0.116650105,-9.77139,0.23898315
800982281,3,1741275456109075054,0.118145615,-9.764811,0.23479572
800982291,3,1741275456119057242,0.10827523,-9.760024,0.24436702
800982301,3,1741275456129042502,0.11784652,-9.7654085,0.23599213
800982311,3,1741275456139025784,0.12981063,-9.766604,0.24526432
800982321,3,1741275456149009534,0.11515459,-9.764811,0.21744776
800982331,3,1741275456158992815,0.12861422,-9.7704935,0.24197419
800982341,3,1741275456168976357,0.12233306,-9.763016,0.23569304
800982351,3,1741275456178923232,0.119042926,-9.766006,0.25393832
800982361,3,1741275456188797711,0.1055833,-9.772287,0.24765715
800982371,3,1741275456198973700,0.12831512,-9.763614,0.24616162
800982381,3,1741275456209096513,0.11964113,-9.767801,0.23030917
800982391,3,1741275456219078700,0.11844472,-9.759128,0.2440679
800982401,3,1741275456229025419,0.11934203,-9.772587,0.23419751
800982411,3,1741275456239206825,0.11515459,-9.76152,0.22941187
800982421,3,1741275456249388544,0.119940236,-9.760324,0.24107689
800982431,3,1741275456259570836,0.122931264,-9.763913,0.23599213
800982442,3,1741275456269753127,0.11365908,-9.761819,0.23808585
800982452,3,1741275456279902607,0.12203395,-9.772587,0.24735804
800982462,3,1741275456289954429,0.11246266,-9.769297,0.22971097
800982472,3,1741275456299937815,0.12113664,-9.763314,0.23569304
800982482,3,1741275456309921773,0.12412767,-9.756734,0.2330011
800982492,3,1741275456319905107,0.11545369,-9.778569,0.22821546
800982502,3,1741275456329863752,0.116650105,-9.767502,0.24526432
800982512,3,1741275456339787190,0.12831512,-9.761221,0.22911277
800982522,3,1741275456349968596,0.10857433,-9.772587,0.23808585
800982532,3,1741275456360150523,0.112761766,-9.766306,0.24975087
800982542,3,1741275456370215107,0.10887343,-9.769297,0.2416751
800982552,3,1741275456380302763,0.11964113,-9.753145,0.23748764
800982562,3,1741275456390366982,0.112761766,-9.753445,0.24137598
800982572,3,1741275456400454638,0.12502499,-9.757333,0.23569304
800982582,3,1741275456410518857,0.119940236,-9.766904,0.24436702
800982592,3,1741275456420536200,0.11934203,-9.761819,0.22851457
800982603,3,1741275456430717607,0.11784652,-9.760024,0.23030917
800982613,3,1741275456440899534,0.11934203,-9.759128,0.23898315
800982623,3,1741275456451081825,0.12113664,-9.754341,0.23330021
800982633,3,1741275456461264117,0.09960124,-9.761819,0.22492532
800982643,3,1741275456471328700,0.119940236,-9.7609215,0.23330021
800982653,3,1741275456481404638,0.12233306,-9.763314,0.23868406
800982663,3,1741275456491586044,0.111864455,-9.766904,0.23718855
800982674,3,1741275456501767971,0.119042926,-9.768699,0.232702
800982684,3,1741275456511832554,0.117547415,-9.7609215,0.22911277
800982694,3,1741275456521826461,0.12562318,-9.769596,0.23958136
800982704,3,1741275456531902659,0.12981063,-9.764811,0.24376881
800982714,3,1741275456541893752,0.12323037,-9.782158,0.23539393
800982724,3,1741275456551877346,0.1058824,-9.777672,0.23718855
800982734,3,1741275456561860263,0.12771691,-9.766006,0.22671995
800982744,3,1741275456571736513,0.11006984,-9.767203,0.23688944
800982754,3,1741275456581753596,0.11515459,-9.765109,0.24137598
800982764,3,1741275456591806096,0.12113664,-9.763016,0.23838496
800982774,3,1741275456601905471,0.12801601,-9.763314,0.23419751
800982784,3,1741275456611957971,0.11485548,-9.764811,0.22402802
800982794,3,1741275456621998752,0.112761766,-9.759128,0.23599213
800982804,3,1741275456632180159,0.118145615,-9.757333,0.2434697
800982814,3,1741275456642287659,0.109471634,-9.765707,0.24077778
800982824,3,1741275456652300419,0.12083755,-9.7681,0.23090738
800982834,3,1741275456662284065,0.11694921,-9.770194,0.24496523
800982844,3,1741275456672268023,0.116650105,-9.760623,0.23898315
800982854,3,1741275456682251409,0.11395818,-9.767502,0.23688944
800982864,3,1741275456692233909,0.110368945,-9.764212,0.23509483
800982874,3,1741275456702218179,0.12622139,-9.762417,0.23808585
800982884,3,1741275456712202190,0.116650105,-9.767203,0.232702
800982894,3,1741275456722185836,0.124426775,-9.77468,0.23599213
800982904,3,1741275456732169221,0.11246266,-9.768399,0.21385853
800982914,3,1741275456742152867,0.10797612,-9.759726,0.21684955
800982924,3,1741275456752136825,0.11365908,-9.759128,0.23001008
800982934,3,1741275456762119638,0.10797612,-9.769895,0.2335993
800982944,3,1741275456771995888,0.124426775,-9.77498,0.23868406
800982954,3,1741275456782036461,0.12622139,-9.747761,0.2324029
800982964,3,1741275456792077242,0.116351,-9.758828,0.232702
800982974,3,1741275456802188336,0.12472588,-9.769297,0.23120649
800982984,3,1741275456812369742,0.11335997,-9.768997,0.23808585
800982994,3,1741275456822551148,0.11724831,-9.764811,0.24077778
800983004,3,1741275456832592554,0.12771691,-9.762716,0.23419751
800983014,3,1741275456842576252,0.1265205,-9.762118,0.2318047
800983024,3,1741275456852560211,0.11545369,-9.762716,0.23509483
800983034,3,1741275456862543544,0.11724831,-9.760324,0.2330011
800983044,3,1741275456872527242,0.11246266,-9.772287,0.23569304
800983054,3,1741275456882510575,0.12053844,-9.7704935,0.23958136
800983064,3,1741275456892494273,0.12562318,-9.7681,0.22582264
800983074,3,1741275456902478232,0.11964113,-9.767203,0.22731815
800983084,3,1741275456912461565,0.118145615,-9.766006,0.23449662
800983094,3,1741275456922445263,0.11335997,-9.759426,0.23539393
800983104,3,1741275456932428596,0.12023934,-9.773484,0.23060828
800983114,3,1741275456942411044,0.12472588,-9.775877,0.21984059
800983124,3,1741275456952395315,0.12203395,-9.753743,0.22971097
800983134,3,1741275456962378544,0.11874382,-9.761819,0.2335993
800983144,3,1741275456972254794,0.12562318,-9.764811,0.2434697
800983154,3,1741275456982318961,0.12083755,-9.75494,0.22881366
800983164,3,1741275456992500367,0.10977074,-9.756734,0.23928227
800983175,3,1741275457002682502,0.11156536,-9.757931,0.22851457
800983185,3,1741275457012864794,0.11365908,-9.755837,0.23509483
800983195,3,1741275457023047086,0.117547415,-9.762716,0.24077778
800983205,3,1741275457033229377,0.11934203,-9.769895,0.23599213
800983215,3,1741275457043391982,0.12951152,-9.762716,0.23120649
800983225,3,1741275457053406721,0.11066805,-9.763016,0.232702
800983235,3,1741275457063389950,0.11425728,-9.767801,0.22701904
800983245,3,1741275457073373752,0.111864455,-9.764511,0.22701904
800983255,3,1741275457083357711,0.11306087,-9.763614,0.21984059
800983265,3,1741275457093340940,0.12352947,-9.763913,0.22313072
800983275,3,1741275457103324742,0.115752794,-9.776176,0.23120649
800983285,3,1741275457113308700,0.12233306,-9.777372,0.23599213
800983295,3,1741275457123291929,0.11964113,-9.767203,0.23479572
800983305,3,1741275457133275732,0.11874382,-9.771989,0.2335993
800983315,3,1741275457143258961,0.12981063,-9.7609215,0.22881366
800983325,3,1741275457153241304,0.11246266,-9.762417,0.23001008
800983335,3,1741275457163223492,0.1265205,-9.764212,0.2324029
800983345,3,1741275457173358336,0.122931264,-9.764212,0.22821546
800983355,3,1741275457183539742,0.111266255,-9.765707,0.2222334
800983365,3,1741275457193521929,0.11216356,-9.770194,0.23330021
800983376,3,1741275457203668179,0.10887343,-9.771091,0.22432712
800983386,3,1741275457213849586,0.11934203,-9.761819,0.23659034
800983396,3,1741275457224031877,0.123828575,-9.757033,0.22552353
800983406,3,1741275457234214169,0.12323037,-9.760024,0.23001008
800983416,3,1741275457244396461,0.119042926,-9.777672,0.22552353
800983426,3,1741275457254578752,0.12502499,-9.759128,0.22791636
800983437,3,1741275457264761044,0.11545369,-9.763016,0.2228316
800983447,3,1741275457274807867,0.11246266,-9.753743,0.23150559
800983457,3,1741275457284791825,0.1274178,-9.763614,0.21625134
800983467,3,1741275457294774898,0.10917253,-9.766006,0.21864417
800983477,3,1741275457304758857,0.11694921,-9.764811,0.22881366
800983487,3,1741275457314742815,0.11335997,-9.773484,0.2324029
800983497,3,1741275457324725888,0.12173485,-9.770194,0.22612174
800983507,3,1741275457334709846,0.109471634,-9.766904,0.2228316
800983517,3,1741275457344692034,0.10887343,-9.767203,0.2318047
800983527,3,1741275457354674221,0.11365908,-9.763314,0.22313072
800983536,3,1741275457364491721,0.110368945,-9.759726,0.22851457
800983547,3,1741275457374673232,0.12622139,-9.771989,0.21924238
800983557,3,1741275457384854742,0.11545369,-9.777672,0.22612174
800983567,3,1741275457395037034,0.112761766,-9.769596,0.22701904
800983577,3,1741275457405195784,0.115752794,-9.765707,0.21924238
800983587,3,1741275457415189690,0.110368945,-9.771091,0.21954148
800983597,3,1741275457425371096,0.10109676,-9.77468,0.2105684
800983607,3,1741275457435529065,0.13310076,-9.756435,0.212363
800983617,3,1741275457445511252,0.11934203,-9.765707,0.23030917
800983628,3,1741275457455661148,0.12143575,-9.766604,0.22342981
800983638,3,1741275457465670888,0.13190435,-9.77797,0.22941187
800983648,3,1741275457475654846,0.11395818,-9.772287,0.2117648
800983658,3,1741275457485638700,0.11724831,-9.7681,0.2213361
800983668,3,1741275457495621877,0.12203395,-9.763913,0.2216352
800983677,3,1741275457505605732,0.11485548,-9.765707,0.2111666
800983687,3,1741275457515588700,0.12023934,-9.763913,0.23001008
800983697,3,1741275457525570888,0.12592229,-9.761819,0.21804596
800983707,3,1741275457535553075,0.11006984,-9.760324,0.22552353
800983718,3,1741275457545653284,0.12323037,-9.768399,0.2213361
800983728,3,1741275457555835211,0.12562318,-9.762417,0.22492532
800983738,3,1741275457566017502,0.12891331,-9.762118,0.22612174
800983748,3,1741275457576199794,0.10887343,-9.755538,0.23030917
800983758,3,1741275457586382086,0.112761766,-9.769297,0.22103699
800983768,3,1741275457596564377,0.110368945,-9.760024,0.2222334
800983779,3,1741275457606746669,0.12263216,-9.767801,0.21714866
800983789,3,1741275457616928961,0.11485548,-9.767203,0.22013968
800983799,3,1741275457627111252,0.119042926,-9.765707,0.21894327
800983809,3,1741275457637293544,0.10677971,-9.774082,0.22492532
800983819,3,1741275457647475836,0.119940236,-9.772587,0.22103699
800983830,3,1741275457657658127,0.12352947,-9.768997,0.21655045
800983840,3,1741275457667840419,0.11156536,-9.761221,0.21415763
800983850,3,1741275457678022711,0.1160519,-9.7654085,0.21864417
800983860,3,1741275457688205002,0.118145615,-9.775578,0.22313072
800983870,3,1741275457698387294,0.112761766,-9.76152,0.22671995
800983880,3,1741275457708569586,0.12562318,-9.755239,0.21894327
800983891,3,1741275457718751877,0.12532409,-9.765109,0.2213361
800983901,3,1741275457728934169,0.12412767,-9.782158,0.21535404
800983911,3,1741275457738998752,0.115752794,-9.753743,0.22761725
800983921,3,1741275457749086409,0.116650105,-9.764212,0.22013968
800983931,3,1741275457759267815,0.12352947,-9.756136,0.22761725
800983941,3,1741275457769449742,0.11485548,-9.763913,0.22342981
800983952,3,1741275457779632034,0.12173485,-9.776774,0.2105684
800983962,3,1741275457789784638,0.1274178,-9.769596,0.21984059
800983972,3,1741275457799828961,0.12083755,-9.768399,0.21415763
800983982,3,1741275457809812554,0.12981063,-9.762417,0.21984059
800983992,3,1741275457819795992,0.118145615,-9.776176,0.21864417
800984002,3,1741275457829779586,0.106480606,-9.773484,0.2114657
800984012,3,1741275457839763544,0.10857433,-9.7681,0.2204388
800984022,3,1741275457849746982,0.12113664,-9.755538,0.20967108
800984032,3,1741275457859730575,0.11306087,-9.761221,0.22671995
800984042,3,1741275457869714534,0.10887343,-9.771989,0.21804596
800984052,3,1741275457879697971,0.12622139,-9.769297,0.20937198
800984062,3,1741275457889681565,0.1271187,-9.770194,0.212363
800984072,3,1741275457899665002,0.11395818,-9.766306,0.21385853
800984082,3,1741275457909648596,0.116650105,-9.774082,0.21655045
800984092,3,1741275457919632554,0.11335997,-9.778569,0.2108675
800984102,3,1741275457929615992,0.11515459,-9.765109,0.2117648
800984111,3,1741275457939599586,0.111864455,-9.7681,0.21714866
800984121,3,1741275457949583544,0.119042926,-9.761819,0.21505493
800984131,3,1741275457959566982,0.13130614,-9.762716,0.20787647
800984141,3,1741275457969550575,0.116650105,-9.758529,0.21026929
800984151,3,1741275457979534013,0.116650105,-9.766006,0.21894327
800984161,3,1741275457989517607,0.11515459,-9.77827,0.2228316
800984171,3,1741275457999501565,0.11784652,-9.760324,0.2111666
800984181,3,1741275458009485002,0.10887343,-9.768399,0.22671995
800984191,3,1741275458019468596,0.10977074,-9.762118,0.21894327
800984201,3,1741275458029452554,0.11934203,-9.775877,0.21864417
800984211,3,1741275458039435992,0.111266255,-9.765707,0.21984059
800984221,3,1741275458049419586,0.11425728,-9.77827,0.21445672
800984231,3,1741275458059403023,0.11216356,-9.772886,0.212363
800984241,3,1741275458069386617,0.11425728,-9.77498,0.21864417
800984251,3,1741275458079370575,0.1268196,-9.763016,0.21296121
800984261,3,1741275458089354013,0.115752794,-9.767203,0.22821546
800984271,3,1741275458099337607,0.11784652,-9.768399,0.21415763
800984281,3,1741275458109321565,0.112761766,-9.768699,0.21415763
800984291,3,1741275458119305002,0.12113664,-9.763314,0.20368902
800984301,3,1741275458129288596,0.10378868,-9.771989,0.21385853
800984311,3,1741275458139272554,0.11066805,-9.775279,0.21954148
800984321,3,1741275458149255992,0.11216356,-9.779765,0.20638095
800984331,3,1741275458159239586,0.116650105,-9.77498,0.20997019
800984341,3,1741275458169223023,0.11395818,-9.763314,0.2009971
800984351,3,1741275458179206617,0.117547415,-9.751948,0.21924238
800984361,3,1741275458189190575,0.10917253,-9.756435,0.20189442
800984371,3,1741275458199174013,0.11006984,-9.765109,0.21625134
800984381,3,1741275458209157607,0.11694921,-9.771989,0.20488544
800984391,3,1741275458219141565,0.11934203,-9.772587,0.21565314
800984401,3,1741275458229125002,0.11784652,-9.769895,0.21475583
800984411,3,1741275458239108596,0.12562318,-9.763614,0.20578274
800984421,3,1741275458249092554,0.116650105,-9.763314,0.21475583
800984431,3,1741275458259075992,0.11006984,-9.772886,0.21595225
800984441,3,1741275458269059586,0.12053844,-9.767203,0.2213361
800984451,3,1741275458279043023,0.12502499,-9.751051,0.21385853
800984461,3,1741275458289026617,0.11874382,-9.766904,0.21625134
800984471,3,1741275458299010575,0.124426775,-9.756734,0.2105684
800984481,3,1741275458308994013,0.122931264,-9.757631,0.22372891
800984491,3,1741275458318977607,0.11844472,-9.767203,0.21266212
800984501,3,1741275458328961565,0.10887343,-9.775279,0.22791636
800984511,3,1741275458338945002,0.12083755,-9.766604,0.20937198
800984521,3,1741275458348928596,0.12143575,-9.757931,0.21326032
800984531,3,1741275458358912554,0.119042926,-9.755239,0.21266212
800984541,3,1741275458368895992,0.11724831,-9.761221,0.20668006
800984551,3,1741275458378879586,0.11515459,-9.767203,0.20997019
800984561,3,1741275458388863544,0.11545369,-9.7681,0.21445672
800984571,3,1741275458398846982,0.11096715,-9.7704935,0.20877378
800984581,3,1741275458408830575,0.11306087,-9.762716,0.20548365
800984591,3,1741275458418814013,0.112761766,-9.762417,0.2105684
800984601,3,1741275458428797607,0.111864455,-9.764511,0.20638095
800984611,3,1741275458438781565,0.11515459,-9.753445,0.20787647
800984621,3,1741275458448765002,0.1274178,-9.767502,0.20309082
800984631,3,1741275458458748596,0.109471634,-9.768399,0.21535404
800984641,3,1741275458468732554,0.11694921,-9.757931,0.2117648
800984651,3,1741275458478715992,0.11306087,-9.767801,0.20727827
800984661,3,1741275458488699586,0.112761766,-9.7609215,0.22103699
800984671,3,1741275458498683544,0.111266255,-9.77139,0.20817557
800984681,3,1741275458508666982,0.11934203,-9.763314,0.2105684
800984691,3,1741275458518650575,0.11964113,-9.759426,0.21326032
800984701,3,1741275458528634534,0.11545369,-9.757333,0.20668006
800984711,3,1741275458538617971,0.12023934,-9.768399,0.21774685
800984720,3,1741275458548601565,0.119042926,-9.766306,0.22492532
800984730,3,1741275458558585523,0.11335997,-9.76152,0.212363
800984740,3,1741275458568568961,0.10887343,-9.779167,0.22013968
800984750,3,1741275458578552554,0.11246266,-9.780363,0.22612174
800984760,3,1741275458588536513,0.119940236,-9.771989,0.21206391
800984770,3,1741275458598519950,0.11395818,-9.763913,0.20578274
800984780,3,1741275458608503544,0.12771691,-9.761819,0.212363
800984790,3,1741275458618486982,0.11246266,-9.763314,0.2105684
800984800,3,1741275458628470575,0.12143575,-9.762118,0.20279172
800984810,3,1741275458638454534,0.119042926,-9.758529,0.21625134
800984820,3,1741275458648437971,0.116650105,-9.771091,0.21505493
800984830,3,1741275458658421565,0.111864455,-9.766904,0.22612174
800984840,3,1741275458668405523,0.11066805,-9.767203,0.20967108
800984850,3,1741275458678388961,0.10707881,-9.769297,0.21026929
800984860,3,1741275458688372554,0.13100705,-9.766904,0.21714866
800984870,3,1741275458698356513,0.116650105,-9.767801,0.2216352
800984880,3,1741275458708339950,0.111864455,-9.769895,0.20279172
800984890,3,1741275458718322502,0.12143575,-9.763016,0.2105684
800984900,3,1741275458728306565,0.116351,-9.77139,0.21864417
800984910,3,1741275458738291252,0.116650105,-9.7609215,0.20727827
800984920,3,1741275458748274690,0.11425728,-9.7654085,0.20997019
800984930,3,1741275458758258284,0.111266255,-9.763614,0.21894327
800984940,3,1741275458768242242,0.11395818,-9.769297,0.21385853
800984950,3,1741275458778225679,0.12472588,-9.763614,0.20937198
800984960,3,1741275458788209273,0.110368945,-9.764511,0.22402802
800984970,3,1741275458798193232,0.11934203,-9.756734,0.21714866
800984980,3,1741275458808176669,0.12622139,-9.782158,0.2108675
800984990,3,1741275458818160263,0.110368945,-9.767801,0.2222334
800985000,3,1741275458828144221,0.11485548,-9.765707,0.20458634
800985010,3,1741275458838127659,0.112761766,-9.774082,0.21744776
800985020,3,1741275458848111252,0.10827523,-9.766306,0.200698
800985030,3,1741275458858095211,0.11006984,-9.776774,0.20279172
800985040,3,1741275458868078648,0.123828575,-9.769895,0.21445672
800985050,3,1741275458878062242,0.11515459,-9.757931,0.21475583
800985060,3,1741275458888046200,0.11246266,-9.765109,0.21355942
800985070,3,1741275458898029638,0.11485548,-9.767203,0.21744776
800985080,3,1741275458908013232,0.118145615,-9.769297,0.2213361
800985090,3,1741275458917997190,0.11335997,-9.763016,0.20279172
800985100,3,1741275458927980627,0.109471634,-9.755239,0.2117648
800985110,3,1741275458937964221,0.11306087,-9.772587,0.212363
800985120,3,1741275458947948179,0.115752794,-9.782756,0.21954148
800985130,3,1741275458957931617,0.12113664,-9.7609215,0.20727827
800985140,3,1741275458967915211,0.10767702,-9.773484,0.21684955
800985150,3,1741275458977899169,0.12143575,-9.774082,0.21385853
800985160,3,1741275458987882607,0.12083755,-9.746565,0.20907287
800985170,3,1741275458997866200,0.11156536,-9.763314,0.2114657
800985180,3,1741275459007850159,0.11216356,-9.763614,0.21326032
800985190,3,1741275459017833075,0.11724831,-9.761819,0.20787647
800985200,3,1741275459027816669,0.12143575,-9.764511,0.21565314
800985210,3,1741275459037800992,0.111266255,-9.775877,0.2117648
800985220,3,1741275459047784429,0.10677971,-9.778569,0.21385853
800985230,3,1741275459057768023,0.11485548,-9.763913,0.21774685
800985240,3,1741275459067751982,0.11455639,-9.764811,0.21326032
800985250,3,1741275459077735419,0.11844472,-9.760324,0.21774685
800985260,3,1741275459087719013,0.10767702,-9.773185,0.20997019
800985270,3,1741275459097702971,0.117547415,-9.767203,0.21954148
800985280,3,1741275459107686409,0.11515459,-9.772287,0.2213361
800985290,3,1741275459117668961,0.12592229,-9.767203,0.21714866
800985300,3,1741275459127653023,0.11425728,-9.768699,0.21505493
800985310,3,1741275459137637711,0.13100705,-9.772587,0.21505493
800985320,3,1741275459147621148,0.12831512,-9.7704935,0.20817557
800985329,3,1741275459157604742,0.12083755,-9.771989,0.21744776
800985339,3,1741275459167588700,0.11874382,-9.766904,0.2204388
800985349,3,1741275459177572138,0.11784652,-9.767203,0.21834506
800985359,3,1741275459187555732,0.12053844,-9.779466,0.21326032
800985369,3,1741275459197539690,0.119940236,-9.765707,0.21625134
800985379,3,1741275459207523127,0.122931264,-9.766306,0.2105684
800985389,3,1741275459217505679,0.12263216,-9.75823,0.20937198
800985399,3,1741275459227489534,0.12083755,-9.773185,0.21595225
800985409,3,1741275459237474221,0.11874382,-9.756136,0.22313072
800985419,3,1741275459247458179,0.11156536,-9.769895,0.21625134
800985429,3,1741275459257441617,0.109471634,-9.77139,0.22342981
800985439,3,1741275459267425211,0.116650105,-9.770792,0.20368902
800985449,3,1741275459277409169,0.11455639,-9.764212,0.20937198
800985459,3,1741275459287392607,0.11784652,-9.767203,0.21415763
800985469,3,1741275459297376200,0.1271187,-9.755538,0.21954148
800985479,3,1741275459307360159,0.11246266,-9.771689,0.22342981
800985489,3,1741275459317343596,0.11425728,-9.762716,0.2111666
800985499,3,1741275459327327190,0.11844472,-9.759426,0.21714866
800985509,3,1741275459337311148,0.11006984,-9.770194,0.20518455
800985519,3,1741275459347294586,0.119042926,-9.768997,0.21266212
800985529,3,1741275459357278179,0.111864455,-9.77139,0.20398813
800985539,3,1741275459367262138,0.12891331,-9.774082,0.21625134
800985549,3,1741275459377245575,0.12352947,-9.773185,0.20997019
800985559,3,1741275459387229169,0.116650105,-9.769297,0.22313072
800985569,3,1741275459397213127,0.115752794,-9.771989,0.2117648
800985579,3,1741275459407197086,0.109471634,-9.775279,0.2105684
800985589,3,1741275459417180002,0.11784652,-9.757631,0.21385853
800985599,3,1741275459427163440,0.13609178,-9.773484,0.21026929
800985609,3,1741275459437148127,0.12412767,-9.765109,0.21296121
800985619,3,1741275459447131565,0.11784652,-9.774082,0.2219343
800985629,3,1741275459457115159,0.10827523,-9.764212,0.21326032
800985639,3,1741275459467099117,0.118145615,-9.764511,0.21326032
800985649,3,1741275459477082554,0.119940236,-9.764511,0.2222334
800985659,3,1741275459487066148,0.12053844,-9.771091,0.21984059
800985669,3,1741275459497050107,0.12113664,-9.775279,0.2111666
800985679,3,1741275459507033544,0.119042926,-9.761221,0.21714866
800985689,3,1741275459517016096,0.12472588,-9.76152,0.21864417
800985699,3,1741275459527000159,0.11694921,-9.766306,0.21355942
800985709,3,1741275459536984846,0.12173485,-9.763614,0.21355942
800985719,3,1741275459546968284,0.12233306,-9.759426,0.2213361
800985729,3,1741275459556951877,0.10707881,-9.765109,0.20518455
800985739,3,1741275459566935836,0.11515459,-9.772287,0.21535404
800985749,3,1741275459576919273,0.10977074,-9.760024,0.22313072
800985759,3,1741275459586902867,0.1265205,-9.758828,0.21924238
800985769,3,1741275459596886825,0.11306087,-9.758828,0.21894327
800985779,3,1741275459606870263,0.12323037,-9.768997,0.21385853
800985789,3,1741275459616853857,0.10887343,-9.769297,0.20937198
800985799,3,1741275459626837815,0.119940236,-9.768399,0.20817557
800985809,3,1741275459636821773,0.13160525,-9.767502,0.2117648
800985819,3,1741275459646805211,0.11306087,-9.764811,0.21894327
800985829,3,1741275459656788804,0.11874382,-9.77139,0.21714866
800985839,3,1741275459666772763,0.117547415,-9.770194,0.21475583
800985849,3,1741275459676756200,0.1271187,-9.775279,0.20877378
800985859,3,1741275459686739794,0.13130614,-9.771989,0.2213361
800985869,3,1741275459696723752,0.12113664,-9.77827,0.2117648
800985879,3,1741275459706707190,0.11964113,-9.768997,0.21774685
800985889,3,1741275459716689742,0.11425728,-9.769895,0.20847467
800985899,3,1741275459726673752,0.11724831,-9.756435,0.20578274
800985909,3,1741275459736658284,0.10737792,-9.766006,0.22013968
800985919,3,1741275459746641877,0.12203395,-9.754341,0.21774685
800985929,3,1741275459756625836,0.11455639,-9.760324,0.21655045
800985938,3,1741275459766609273,0.12053844,-9.763913,0.21655045
800985948,3,1741275459776592867,0.12323037,-9.766306,0.2216352
800985958,3,1741275459786576825,0.116650105,-9.764511,0.21355942
800985968,3,1741275459796560784,0.11395818,-9.758828,0.21625134
800985978,3,1741275459806544221,0.11694921,-9.77498,0.20997019
800985988,3,1741275459816526773,0.12352947,-9.775877,0.22013968
800985998,3,1741275459826510784,0.122931264,-9.765707,0.2117648
800986008,3,1741275459836495315,0.111266255,-9.765707,0.2213361
800986018,3,1741275459846478909,0.11066805,-9.774382,0.21684955
800986028,3,1741275459856462867,0.115752794,-9.766904,0.20697916
800986038,3,1741275459866446304,0.12323037,-9.776176,0.21864417
800986048,3,1741275459876429898,0.11964113,-9.7704935,0.21385853
800986058,3,1741275459886413857,0.116650105,-9.764811,0.21595225
800986068,3,1741275459896396773,0.118145615,-9.76152,0.22522444
800986078,3,1741275459906380367,0.11545369,-9.764212,0.21326032
800986088,3,1741275459916363648,0.104087785,-9.76152,0.21714866
800986098,3,1741275459926347659,0.12981063,-9.75165,0.21954148
800986108,3,1741275459936332190,0.11515459,-9.75494,0.22073789
800986118,3,1741275459946315784,0.10139586,-9.803394,0.2431706
800986128,3,1741275459956299742,0.15403795,-9.766006,0.20877378
800986138,3,1741275459966283179,0.11096715,-9.7681,0.19740787
800986148,3,1741275459976266773,0.11006984,-9.753743,0.18574286
800986158,3,1741275459986250732,0.09930214,-9.787841,0.22881366
800986168,3,1741275459996234690,0.112761766,-9.756734,0.24137598
800986178,3,1741275460006218127,0.1061815,-9.7399845,0.17198412
800986188,3,1741275460016201721,0.08793623,-9.795019,0.26590243
800986198,3,1741275460026185679,0.13938192,-9.746864,0.20937198
800986208,3,1741275460036169117,0.13489537,-9.76152,0.21385853
800986218,3,1741275460046152711,0.11694921,-9.772287,0.23090738
800986228,3,1741275460056136669,0.112761766,-9.765707,0.22402802
800986238,3,1741275460066120627,0.13040884,-9.758828,0.22372891
800986248,3,1741275460076104065,0.12592229,-9.771091,0.21595225
800986258,3,1741275460086087659,0.13130614,-9.7609215,0.21445672
800986268,3,1741275460096071617,0.10977074,-9.7681,0.20997019
800986278,3,1741275460106055054,0.123828575,-9.764511,0.22313072
800986288,3,1741275460116037607,0.11874382,-9.762118,0.22791636
800986298,3,1741275460126021617,0.1274178,-9.764511,0.22642085
800986308,3,1741275460136006148,0.119940236,-9.766904,0.2105684
800986318,3,1741275460145989742,0.111864455,-9.766604,0.22642085
800986328,3,1741275460155973700,0.10917253,-9.775279,0.21924238
800986338,3,1741275460165957659,0.11395818,-9.766006,0.2222334
800986348,3,1741275460175941096,0.11365908,-9.753145,0.2213361
800986358,3,1741275460185924690,0.11964113,-9.769895,0.22791636
800986368,3,1741275460195908648,0.116351,-9.751051,0.2219343
800986378,3,1741275460205892086,0.115752794,-9.769297,0.20877378
800986388,3,1741275460215874638,0.12592229,-9.767502,0.21894327
800986398,3,1741275460225858388,0.11246266,-9.770194,0.21774685
800986408,3,1741275460235843440,0.12323037,-9.75823,0.21894327
800986418,3,1741275460245826877,0.11425728,-9.777672,0.2213361
800986428,3,1741275460255810471,0.11455639,-9.7681,0.22522444
800986438,3,1741275460265794429,0.10677971,-9.763016,0.21655045
800986448,3,1741275460275778388,0.11844472,-9.765707,0.21954148
800986458,3,1741275460285761825,0.111864455,-9.776774,0.2213361
800986468,3,1741275460295745419,0.115752794,-9.776475,0.22642085
800986478,3,1741275460305729377,0.115752794,-9.78485,0.21834506
800986488,3,1741275460315712294,0.13100705,-9.761221,0.2117648
800986498,3,1741275460325695784,0.1160519,-9.769297,0.21954148
800986508,3,1741275460335680315,0.13280165,-9.76152,0.21505493
800986518,3,1741275460345663909,0.124426775,-9.763614,0.21326032
800986528,3,1741275460355647867,0.12173485,-9.777672,0.22073789
800986538,3,1741275460365631304,0.12023934,-9.763016,0.21296121
800986548,3,1741275460375614898,0.116650105,-9.775877,0.22701904
800986557,3,1741275460385598857,0.12352947,-9.765707,0.21744776
800986567,3,1741275460395582815,0.11395818,-9.756734,0.22671995
800986577,3,1741275460405566252,0.11844472,-9.761819,0.21326032
800986587,3,1741275460415549846,0.124426775,-9.766904,0.22372891
800986597,3,1741275460425533804,0.12352947,-9.771091,0.22372891
800986607,3,1741275460435517242,0.12113664,-9.759128,0.22671995
800986617,3,1741275460445500836,0.11844472,-9.766006,0.2213361
800986627,3,1741275460455484794,0.11724831,-9.768399,0.22522444
800986637,3,1741275460465468752,0.12083755,-9.764511,0.21445672
800986647,3,1741275460475452190,0.12921242,-9.769297,0.21894327
800986657,3,1741275460485435784,0.116351,-9.779466,0.22552353
800986667,3,1741275460495419742,0.12083755,-9.758828,0.21984059
800986677,3,1741275460505403700,0.12143575,-9.758828,0.22313072
800986687,3,1741275460515386617,0.116351,-9.769596,0.2222334
800986697,3,1741275460525370054,0.11964113,-9.75823,0.21834506
800986707,3,1741275460535354742,0.11964113,-9.769297,0.21445672
800986717,3,1741275460545338179,0.11694921,-9.777372,0.21475583
800986727,3,1741275460555321773,0.12562318,-9.779167,0.21475583
800986737,3,1741275460565305732,0.11964113,-9.767801,0.22492532
800986747,3,1741275460575289690,0.123828575,-9.757631,0.2204388
800986757,3,1741275460585273127,0.10977074,-9.770194,0.23509483
800986767,3,1741275460595256721,0.11455639,-9.768699,0.22372891
800986777,3,1741275460605240679,0.123828575,-9.762716,0.232702
800986787,3,1741275460615224117,0.12592229,-9.766306,0.22432712
800986797,3,1741275460625207711,0.10289137,-9.772886,0.2114657
800986807,3,1741275460635191669,0.11844472,-9.766306,0.21684955
800986817,3,1741275460645175627,0.11365908,-9.764212,0.22522444
800986827,3,1741275460655159065,0.12233306,-9.760623,0.22642085
800986837,3,1741275460665142659,0.11246266,-9.763913,0.21744776
800986847,3,1741275460675126617,0.12801601,-9.764511,0.22582264
800986857,3,1741275460685110575,0.12173485,-9.7681,0.22103699
800986867,3,1741275460695094013,0.11964113,-9.763913,0.23330021
800986877,3,1741275460705077607,0.11395818,-9.7704935,0.23001008
800986887,3,1741275460715060523,0.11216356,-9.767502,0.2222334
800986897,3,1741275460725044013,0.11784652,-9.77498,0.212363
800986907,3,1741275460735029065,0.106480606,-9.768699,0.22851457
800986917,3,1741275460745012502,0.116351,-9.771989,0.21565314
800986927,3,1741275460754996096,0.13489537,-9.765707,0.22432712
800986937,3,1741275460764980054,0.12472588,-9.75494,0.21894327
800986947,3,1741275460774962971,0.116650105,-9.765707,0.22582264
800986957,3,1741275460784947034,0.10917253,-9.776774,0.21984059
800986967,3,1741275460794931200,0.118145615,-9.754043,0.22372891
800986977,3,1741275460804914794,0.1061815,-9.783953,0.22552353
800986987,3,1741275460814897711,0.10348958,-9.770792,0.2434697
800986997,3,1741275460824881461,0.11844472,-9.747163,0.23030917
800987007,3,1741275460834865992,0.12263216,-9.750453,0.22522444
800987017,3,1741275460844849586,0.10857433,-9.769895,0.23449662
800987027,3,1741275460854833544,0.11934203,-9.77139,0.22911277
800987037,3,1741275460864817502,0.1268196,-9.763314,0.24227329
800987047,3,1741275460874800940,0.13070793,-9.772287,0.24376881
800987057,3,1741275460884783492,0.15134603,-9.754641,0.22522444
800987067,3,1741275460894767502,0.11874382,-9.75823,0.20428723
800987077,3,1741275460904752034,0.08973085,-9.777372,0.22342981
800987087,3,1741275460914734586,0.12233306,-9.754043,0.22013968
800987097,3,1741275460924718023,0.12981063,-9.762716,0.19920248
800987107,3,1741275460934703440,0.08823533,-9.787243,0.1692922
800987117,3,1741275460944686877,0.09332009,-9.766306,0.14745769
800987127,3,1741275460954670471,0.13968103,-9.7609215,0.13220344
800987137,3,1741275460964654429,0.11365908,-9.772287,0.17018951
800987147,3,1741275460974638388,0.12352947,-9.763913,0.18245272
800987157,3,1741275460984621304,0.11455639,-9.795019,0.29282168
800987166,3,1741275460994497554,0.13190435,-9.702896,0.40977088
800987176,3,1741275461004514638,0.13310076,-9.731609,0.1896312
800987186,3,1741275461014567138,0.11874382,-9.787243,0.20847467
800987197,3,1741275461024631357,0.1372882,-9.782756,0.22522444
800987207,3,1741275461034812763,0.13369897,-9.754641,0.21954148
800987217,3,1741275461044994742,0.13130614,-9.749257,0.19172491
800987227,3,1741275461055078492,0.1271187,-9.772587,0.19172491
800987237,3,1741275461065078700,0.11395818,-9.785748,0.14626129
800987247,3,1741275461075062659,0.07926225,-9.729516,0.40079778
800987257,3,1741275461085046617,0.10797612,-9.803095,0.15613168
800987267,3,1741275461095030002,0.09092726,-9.7247305,0.22612174
800987277,3,1741275461105013648,0.08823533,-9.787841,0.19950159
800987287,3,1741275461114996461,0.13938192,-9.725029,0.2324029
800987297,3,1741275461124919794,0.15882361,-9.749855,0.22103699
800987307,3,1741275461134917971,0.0951147,-9.767502,0.23898315
800987317,3,1741275461145076252,0.123828575,-9.761221,0.22462623
800987327,3,1741275461155257659,0.12233306,-9.768399,0.22941187
800987337,3,1741275461165439690,0.109471634,-9.77498,0.22851457
800987347,3,1741275461175485732,0.10468599,-9.761221,0.22642085
800987357,3,1741275461185471252,0.13399807,-9.831211,0.23988047
800987367,3,1741275461195453961,0.12113664,-9.68824,0.20967108
800987377,3,1741275461205437867,0.08344969,-9.78156,0.2216352
800987387,3,1741275461215420836,0.16061822,-9.749257,0.23898315
800987397,3,1741275461225405315,0.11724831,-9.774382,0.22342981
800987407,3,1741275461235389794,0.07477571,-9.769596,0.23599213
800987417,3,1741275461245373127,0.14416756,-9.747462,0.2440679
800987427,3,1741275461255355575,0.12981063,-9.770194,0.22582264
800987437,3,1741275461265340054,0.097806625,-9.7812605,0.22701904
800987447,3,1741275461275324534,0.119940236,-9.778569,0.22761725
800987457,3,1741275461285307242,0.11934203,-9.768399,0.21535404
800987467,3,1741275461295159950,0.13070793,-9.766306,0.22522444
800987477,3,1741275461305224013,0.11964113,-9.764212,0.21954148
800987487,3,1741275461315253075,0.13369897,-9.759726,0.22432712
800987497,3,1741275461325375888,0.11455639,-9.779765,0.22582264
800987507,3,1741275461335557294,0.11425728,-9.773185,0.24496523
800987518,3,1741275461345739377,0.116650105,-9.773484,0.25782663
800987528,3,1741275461355778804,0.12801601,-9.784551,0.23838496
800987538,3,1741275461365765471,0.12173485,-9.777073,0.20697916
800987548,3,1741275461375748752,0.12053844,-9.761221,0.1893321
800987558,3,1741275461385732502,0.12592229,-9.751948,0.20608185
800987568,3,1741275461395716461,0.1381855,-9.737891,0.23479572
800987578,3,1741275461405700419,0.15732808,-9.755538,0.25603202
800987588,3,1741275461415683023,0.1794617,-9.780065,0.27068806
800987598,3,1741275461425667294,0.1911267,-9.784252,0.2632105
800987608,3,1741275461435651200,0.19770697,-9.768997,0.28265217
800987618,3,1741275461445634950,0.10109676,-9.758529,0.2739782
800987628,3,1741275461455618909,0.10049855,-9.7704935,0.2425724
800987637,3,1741275461465601513,0.04995017,-9.799207,0.20757736
800987647,3,1741275461475454221,0.089132644,-9.757033,0.18215363
800987657,3,1741275461485527554,0.081954174,-9.756734,0.15403795
800987668,3,1741275461495704586,0.10827523,-9.783653,0.15583257
800987678,3,1741275461505721929,0.1698904,-9.793823,0.13908282
800987687,3,1741275461515574638,0.22582264,-9.830014,0.15463616
800987698,3,1741275461525685888,0.2656033,-9.765109,0.17138593
800987708,3,1741275461535867294,0.28803602,-9.747163,0.17258233
800987718,3,1741275461546049586,0.33080772,-9.772287,0.19142582
800987728,3,1741275461556231877,0.26470602,-9.746864,0.14985052
800987738,3,1741275461566414169,0.22253251,-9.725029,0.06669993
800987748,3,1741275461576596461,0.12352947,-9.756136,0.055633128
800987759,3,1741275461586778752,0.17048861,-9.827921,0.06819545
800987769,3,1741275461596961044,0.14267205,-9.938589,0.09272188
800987779,3,1741275461607143336,0.24705894,-9.998111,0.22612174
800987789,3,1741275461617125523,0.38494533,-9.976275,0.32632118
800987799,3,1741275461627248336,0.26859435,-9.887741,0.33409786
800987809,3,1741275461637429742,0.012861421,-9.703494,0.08554341
800987820,3,1741275461647612034,-0.06610172,-9.576974,-0.06011967
800987830,3,1741275461657642919,-0.16749759,-9.693923,-0.06610172
800987840,3,1741275461667625107,-0.15074782,-10.009775,0.051445685
800987849,3,1741275461677418961,-0.06669993,-10.296017,0.10887343
800987859,3,1741275461687588752,0.2204388,-10.442876,0.32303107
800987869,3,1741275461697570940,0.5347959,-10.472787,0.39361933
800987880,3,1741275461707740627,0.6481558,-10.278668,0.4331009
800987890,3,1741275461717722815,0.36161533,-9.88505,0.25573292
800987899,3,1741275461727587346,-0.104985096,-9.501001,0.04875376
800987910,3,1741275461737768752,-0.24466611,-9.240782,-0.016749758
800987920,3,1741275461747926721,-0.13100705,-9.168698,-0.07058827
800987930,3,1741275461757920627,0.15254244,-9.247362,-0.2216352
800987940,3,1741275461768102034,0.36430725,-9.387342,-0.33050862
800987950,3,1741275461778283544,0.4127619,-9.550353,-0.25992036
800987960,3,1741275461788461669,0.25872394,-9.542277,-0.1381855
800987970,3,1741275461798589377,0.015553347,-9.302397,-0.119042926
800987980,3,1741275461808573336,-0.05054838,-9.038589,-0.26171497
800987990,3,1741275461818557190,0.12472588,-9.08794,-0.24556342
800988000,3,1741275461828540367,0.34187454,-9.519247,-0.16271193
800988010,3,1741275461838524325,0.37836507,-10.155738,0.060717873
800988020,3,1741275461848508284,0.4109673,-10.659427,0.38135612
800988030,3,1741275461858492138,0.45822555,-10.89482,0.4866403
800988040,3,1741275461868475107,0.50488555,-10.848161,0.5883353
800988050,3,1741275461878457502,0.48783672,-10.460822,0.5168497
800988060,3,1741275461888443023,0.2832504,-9.829716,0.26889345
800988070,3,1741275461898426982,-0.062213387,-9.386445,-0.038584266
800988080,3,1741275461908410836,-0.4959125,-9.360723,-0.2955136
800988090,3,1741275461918394013,-0.5910272,-9.672985,-0.24735804
800988100,3,1741275461928377971,-0.19860429,-10.068399,-0.046660043
800988110,3,1741275461938361929,0.24586253,-10.4668045,0.11066805
800988120,3,1741275461948345784,0.6987042,-10.536795,0.21355942
800988130,3,1741275461958328961,1.0124631,-10.431809,0.21894327
800988140,3,1741275461968312919,0.82701933,-10.216156,0.17497516
800988150,3,1741275461978296877,0.24227329,-10.003494,-0.048155557
800988160,3,1741275461988280732,-0.2847459,-9.911072,-0.2853441
800988170,3,1741275461998263909,-0.49202415,-9.933504,-0.2970091
800988180,3,1741275462008247867,-0.36789647,-9.977772,-0.07686943
800988190,3,1741275462018231825,0.006879365,-9.962816,0.083748795
800988200,3,1741275462028215679,0.24735804,-9.879067,0.21595225
800988210,3,1741275462038198857,0.06849455,-9.794421,0.1363909
800988220,3,1741275462048182815,-0.13369897,-9.652348,0.07328019
800988230,3,1741275462058166773,-0.051146585,-9.517751,0.030209387
800988240,3,1741275462068150627,0.033499517,-9.464511,0.0041874396
800988250,3,1741275462078133804,0.13758731,-9.506385,0.098703936
800988260,3,1741275462088117763,0.34546378,-9.661919,0.1058824
800988270,3,1741275462098101721,0.39451665,-9.773185,0.05682954
800988280,3,1741275462108085471,0.2620141,-9.809675,0.011066805
800988290,3,1741275462118067659,0.122931264,-9.84796,-0.011365907
800988300,3,1741275462128053179,0.03708875,-10.045967,0.11694921
800988310,3,1741275462138037034,-0.034097724,-10.368699,0.2536392
800988320,3,1741275462148020211,0.023629123,-10.449456,0.26081768
800988330,3,1741275462158004169,0.18544376,-10.275678,0.13519448
800988340,3,1741275462167988127,0.44057846,-10.160523,0.116351
800988350,3,1741275462177971982,0.52283174,-10.226027,0.19621146
800988360,3,1741275462187955159,0.45014977,-10.327422,0.30179477
800988370,3,1741275462197938909,0.36430725,-10.208678,0.30987054
800988380,3,1741275462207921096,0.1061815,-10.0265255,0.20578274
800988390,3,1741275462217903284,-0.18574286,-9.828519,0.089132644
800988400,3,1741275462228049638,-0.34456646,-9.637991,-0.059521463
800988410,3,1741275462238231200,-0.5766702,-9.725328,-0.12831512
800988420,3,1741275462248390211,-0.6652047,-9.923634,-0.018544376
800988430,3,1741275462258428544,-0.6840482,-10.110872,0.16959131
800988440,3,1741275462268411148,-0.7429714,-10.28495,0.37746778
800988450,3,1741275462278396565,-0.4651049,-10.357632,0.52941203
800988460,3,1741275462288380367,0.028115666,-10.240383,0.50099725
800988470,3,1741275462298363596,0.32662028,-10.016953,0.37208393
800988480,3,1741275462308347242,0.51206404,-9.837791,0.24376881
800988490,3,1741275462318329846,0.46779683,-10.058828,0.11784652
800988500,3,1741275462328314950,0.031405795,-10.390234,0.1471586
800988510,3,1741275462338297346,-0.32123643,-10.57478,0.11246266
800988520,3,1741275462348282763,-0.328714,-10.653146,0.11306087
800988530,3,1741275462358266565,-0.03708875,-10.722239,0.18424734
800988540,3,1741275462368249794,0.16091733,-10.620842,0.27337998
800988550,3,1741275462378233752,0.10857433,-10.305289,0.20368902
800988560,3,1741275462388217711,0.027816564,-10.005289,0.054137614
800988570,3,1741275462398201513,0.02961118,-9.708579,0.096311115
800988580,3,1741275462408184429,-0.110368945,-9.592526,-0.1160519
800988590,3,1741275462418166617,-0.2748755,-9.719048,-0.17437695
800988600,3,1741275462428152711,-0.31166515,-9.958629,0.034396827
800988610,3,1741275462438135627,-0.4031906,-10.1650095,0.07148558
800988620,3,1741275462448094273,-0.4456632,-10.148559,0.062213387
800988630,3,1741275462457946929,-0.27008986,-9.947562,0.037387855
800988640,3,1741275462468081461,0.1689931,-9.823135,-0.06759724
800988650,3,1741275462478098804,0.701097,-9.787243,0.05892326
800988660,3,1741275462488280211,0.9275179,-9.650253,0.19351953
800988670,3,1741275462498461825,0.84167534,-9.626625,0.096909314
800988680,3,1741275462508600367,0.41006997,-9.755538,0.050249275
800988690,3,1741275462518593804,-0.104087785,-9.93829,0.019740786
800988700,3,1741275462528577554,-0.39421752,-10.0681,-0.13280165
800988710,3,1741275462538560836,-0.4543372,-10.299307,-0.19501504
800988720,3,1741275462548544794,-0.33589247,-10.516456,-0.06909275
800988730,3,1741275462558528752,-0.15373886,-10.409975,0.0526421
800988740,3,1741275462568512502,0.071186475,-10.3028965,0.1274178
800988750,3,1741275462578495784,0.36340994,-10.386645,0.3260221
800988760,3,1741275462588479742,0.4528417,-10.489237,0.38285163
800988770,3,1741275462598463700,0.12502499,-10.56491,0.16061822
800988780,3,1741275462608447242,-0.19172491,-10.421341,0.11694921
800988790,3,1741275462618429429,-0.41306102,-10.033704,0.0317049
800988800,3,1741275462628414950,-0.39631125,-9.732208,-0.15792629
800988810,3,1741275462638397815,-0.14476576,-9.653843,-0.15343975
800988820,3,1741275462648368232,-0.11934203,-9.794721,-0.16510476
800988830,3,1741275462658237502,-0.34546378,-10.013663,-0.017647067
800988840,3,1741275462668396565,-0.2204388,-10.2520485,0.18873389
800988850,3,1741275462678577971,-0.06580263,-10.345967,0.38344982
800988861,3,1741275462688700784,0.020638095,-10.276875,0.32362926
800988871,3,1741275462698718127,0.09930214,-10.24487,0.17318054
800988881,3,1741275462708840940,0.12861422,-10.170992,0.18813568
800988891,3,1741275462718799586,-0.103190474,-10.10489,0.3044867
800988901,3,1741275462728699221,-0.47048876,-10.282856,0.22402802
800988911,3,1741275462738880627,-0.52223355,-10.28166,0.33050862
800988921,3,1741275462749062346,-0.37268212,-10.184451,0.3278167
800988931,3,1741275462759244638,-0.24227329,-10.082756,0.27756742
800988941,3,1741275462769358492,-0.2222334,-10.053743,0.19621146
800988951,3,1741275462779345315,-0.08554341,-10.105488,0.048454657
800988961,3,1741275462789329273,-0.048454657,-9.998111,0.025722843
800988971,3,1741275462799313232,-0.07447661,-9.748958,-0.05892326
800988981,3,1741275462809296877,-0.084346995,-9.674481,-0.043968115
800988991,3,1741275462819280263,-0.212363,-9.882058,-0.08823533
800989001,3,1741275462829264221,-0.4426722,-10.236495,-0.24047868
800989011,3,1741275462839247554,-0.51266223,-10.628919,-0.04127619
800989021,3,1741275462849182659,-0.47946185,-10.867004,0.14356937
800989031,3,1741275462859105784,-0.22402802,-10.967203,0.19531415
800989041,3,1741275462869287190,0.07716853,-10.954043,0.29461628
800989051,3,1741275462879386565,0.35234314,-10.846665,0.2868396
800989061,3,1741275462889427346,0.43040898,-10.484451,0.27816564
800989071,3,1741275462899608752,0.12981063,-10.095618,0.19950159
800989082,3,1741275462909708127,-0.2434697,-9.9293165,0.05712864
800989092,3,1741275462919619690,-0.42831525,-10.00798,-0.10827523
800989101,3,1741275462929566304,-0.5724828,-10.096216,-0.22671995
800989112,3,1741275462939653961,-0.4001996,-9.958629,-0.16869399
800989122,3,1741275462949718179,-0.29162526,-9.78515,-0.041575294
800989132,3,1741275462959899586,-0.33320054,-9.794421,0.08255238
800989142,3,1741275462970081409,-0.23988047,-10.016655,0.06460621
800989152,3,1741275462980182034,-0.12263216,-10.294222,-0.010468599
800989162,3,1741275462990179117,0.17766708,-10.495519,-0.12771691
800989172,3,1741275463000162659,0.35114673,-10.639387,-0.117547415
800989182,3,1741275463010146148,0.1486541,-10.752747,0.068793654
800989192,3,1741275463020130107,0.07627122,-10.685449,0.25004998
800989202,3,1741275463030113232,0.11724831,-10.53171,0.51266223
800989212,3,1741275463040024794,0.04366901,-10.329217,0.7369894
800989222,3,1741275463049995002,-0.19172491,-10.028918,0.49022955
800989232,3,1741275463060176409,-0.3269194,-9.837492,-0.15224335
800989242,3,1741275463070357815,-0.34546378,-9.71157,-0.47198427
800989252,3,1741275463080539742,-0.12831512,-9.5252285,-0.4776672
800989263,3,1741275463090722034,-0.057726845,-9.483355,-0.42921257
800989273,3,1741275463100904325,-0.08225328,-9.442677,-0.1902294
800989283,3,1741275463111080888,-0.10139586,-9.506684,-0.17108682
800989293,3,1741275463121142502,-0.42771706,-9.729217,-0.054436713
800989303,3,1741275463131125940,-0.5512465,-9.888938,0.12083755
800989313,3,1741275463141109534,-0.0738784,-9.962816,0.10289137
800989323,3,1741275463151093492,0.33708888,-9.88176,0.076570325
800989333,3,1741275463161077450,0.4244269,-9.636495,0.13998012
800989343,3,1741275463171061409,0.25782663,-9.376874,0.043070808
800989353,3,1741275463181044846,-0.09840483,-9.257831,-0.15702899
800989363,3,1741275463191027398,-0.6942177,-9.42144,-0.36729828
800989373,3,1741275463201011252,-1.1886346,-9.729516,-0.26799613
800989383,3,1741275463210995940,-1.1805589,-9.921241,-0.020338992
800989393,3,1741275463220979898,-0.7929216,-9.851849,0.06460621
800989403,3,1741275463230962815,-0.2222334,-9.610174,-0.0134596275
800989413,3,1741275463240862607,-0.13310076,-9.45135,-0.11964113
800989423,3,1741275463250861982,-0.23599213,-9.57488,-0.23509483
800989433,3,1741275463261030992,-0.2757728,-9.793225,-0.2416751
800989443,3,1741275463271083492,-0.22073789,-9.930812,-0.09571291
800989453,3,1741275463281182867,-0.12592229,-10.190134,0.046061836
800989463,3,1741275463291364273,0.090628155,-10.333105,0.22821546
800989473,3,1741275463301430523,0.44207397,-10.196416,0.2844468
800989483,3,1741275463311420784,0.5180461,-9.913165,0.1477568
800989493,3,1741275463321404429,0.39391842,-9.439386,0.015254244
800989503,3,1741275463331388388,0.43280178,-9.033504,-0.30179477
800989513,3,1741275463341371200,0.36011982,-8.973384,-0.51505506
800989523,3,1741275463351355471,0.057726845,-9.37807,-0.48245287
800989533,3,1741275463361340054,-0.46031925,-9.8428755,-0.39840496
800989543,3,1741275463371323440,-0.9305089,-10.156336,-0.13579269
800989553,3,1741275463381307086,-0.8030911,-10.393824,0.32153556
800989563,3,1741275463391291044,-0.30927232,-10.183853,0.6364908
800989573,3,1741275463401275002,0.18753748,-9.524631,0.75673014
800989583,3,1741275463411258388,0.53300124,-8.926126,0.5820541
800989593,3,1741275463421242034,0.5709873,-8.624929,-0.036490545
800989603,3,1741275463431224846,0.28953153,-8.755338,-0.63978094
800989613,3,1741275463441207034,-0.13549358,-9.189935,-0.6343971
800989623,3,1741275463451192242,-0.5479564,-9.64158,-0.40887356
800989633,3,1741275463461305523,-0.7088737,-9.926326,-0.1788635
800989643,3,1741275463471486929,-0.32033914,-10.07498,0.14985052
800989654,3,1741275463481668961,0.17766708,-10.17488,0.34157544
800989664,3,1741275463491714377,0.57816577,-10.235,0.552742
800989674,3,1741275463501699638,0.8111669,-10.174282,0.7429714
800989684,3,1741275463511683596,0.6759724,-9.979566,0.63140607
800989694,3,1741275463521666304,0.3684947,-9.7681,0.32243285
800989703,3,1741275463531554325,0.07447661,-9.586246,0.13429718
800989714,3,1741275463541618596,-0.34337005,-9.416655,0.12502499
800989724,3,1741275463551800002,-0.53330034,-9.310772,0.10199407
800989734,3,1741275463561982190,-0.45403808,-9.225228,-0.25872394
800989744,3,1741275463572164482,-0.74476606,-9.24467,-0.38793638
800989754,3,1741275463582346773,-0.87996054,-9.370294,-0.18813568
800989764,3,1741275463592529065,-0.6517451,-9.682856,-0.12173485
800989775,3,1741275463602711357,-0.43669012,-9.986745,0.03260221
800989785,3,1741275463612893648,-0.2114657,-10.299307,0.39481574
800989795,3,1741275463622899377,0.18514465,-10.335199,0.88325065
800989805,3,1741275463632740315,0.8781659,-10.134501,1.0372887
800989815,3,1741275463642874846,1.0462617,-9.843474,0.6987042
800989825,3,1741275463653056252,0.5353941,-9.69153,0.7692925
800989835,3,1741275463663050159,-0.05922236,-9.70798,0.8252247
800989845,3,1741275463673196409,-0.56380886,-9.627821,0.45613182
800989855,3,1741275463683377815,-0.6876374,-9.58475,0.41306102
800989865,3,1741275463693560054,-0.5482555,-9.436096,0.45852464
800989876,3,1741275463703714013,-0.2536392,-9.19472,0.23569304
800989886,3,1741275463713707867,0.12233306,-9.195318,0.32123643
800989896,3,1741275463723691825,0.5476573,-9.349357,0.497408
800989906,3,1741275463733674950,0.73011,-9.480662,0.66161543
800989916,3,1741275463743657190,0.2976073,-9.619147,0.7366903
800989926,3,1741275463753643023,-0.21206391,-9.710972,0.8635099
800989936,3,1741275463763626304,-0.6266204,-9.680463,0.9418748
800989945,3,1741275463773610211,-0.8024929,-9.614362,0.9349955
800989955,3,1741275463783594169,-0.38644084,-9.518948,0.8922237
800989965,3,1741275463793578127,0.4755735,-9.519546,0.7079764
800989975,3,1741275463803561252,1.1303096,-9.538987,0.4621139
800989985,3,1741275463813545159,1.3908281,-9.717552,0.52582276
800989995,3,1741275463823527450,1.2451651,-9.964611,0.72472614
800990005,3,1741275463833356617,0.62153566,-10.1084795,0.7396813
800990015,3,1741275463843514742,-0.31375888,-9.970892,0.7052845
800990026,3,1741275463853696148,-1.047159,-9.744472,0.50787663
800990036,3,1741275463863877554,-1.3576277,-9.650553,0.2425724
800990046,3,1741275463874059013,-1.023829,-9.730712,0.2527419
800990056,3,1741275463884241304,-0.5907281,-10.068997,0.41635114
800990066,3,1741275463894422398,-0.13070793,-10.497612,0.6643074
800990076,3,1741275463904573752,0.46181476,-10.5945215,0.94695956
800990086,3,1741275463914555940,0.92931247,-10.330114,1.0731809
800990096,3,1741275463924541357,1.1066805,-9.908679,1.0716854
800990106,3,1741275463934525211,0.88265246,-9.542876,1.0082756
800990116,3,1741275463944507398,0.32362926,-9.419945,0.68345
800990126,3,1741275463954492815,-0.17288144,-9.463913,0.21655045
800990136,3,1741275463964476721,-0.73130643,-9.531809,-0.0071784677
800990146,3,1741275463974459846,-1.1907284,-9.668798,0.11784652
800990156,3,1741275463984443804,-1.3947165,-9.927522,0.4833502
800990166,3,1741275463994427763,-1.1443675,-9.876375,0.90807617
800990176,3,1741275464004411669,-0.65952176,-9.72144,1.1596217
800990186,3,1741275464014394690,0.041575294,-9.559626,1.1030912
800990196,3,1741275464024376877,0.5587241,-9.318848,1.0214362
800990206,3,1741275464034194429,0.9131609,-9.276974,1.1431711
800990216,3,1741275464044375836,0.9242278,-9.522836,1.1584252
800990226,3,1741275464054557242,0.58683974,-9.498011,1.1506486
800990237,3,1741275464064738804,-0.029910283,-9.552148,1.0680962
800990247,3,1741275464074921096,-0.73519474,-9.764511,0.9092726
800990257,3,1741275464085103388,-1.0405787,-9.84138,0.5024927
800990267,3,1741275464095283961,-1.0247263,-10.005588,0.29282168
800990277,3,1741275464105423232,-0.66131634,-10.066904,0.2656033
800990287,3,1741275464115407190,0.03619144,-9.865907,0.6089734
800990297,3,1741275464125391148,0.90358967,-9.797711,1.0947163
800990307,3,1741275464135374794,1.1670992,-9.795319,1.4712868
800990317,3,1741275464145357190,1.084846,-9.772287,1.6438692
800990327,3,1741275464155342294,0.7405786,-9.849456,1.6037893
800990337,3,1741275464165324690,0.27098715,-9.760024,1.3166506
800990347,3,1741275464175310107,-0.5739783,-9.41486,0.76241314
800990357,3,1741275464185293909,-1.4682958,-9.211769,0.37657046
800990367,3,1741275464195277138,-1.6331015,-9.175877,0.08883354
800990377,3,1741275464205260784,-1.4234303,-9.126525,-0.12233306
800990387,3,1741275464215231200,-1.0830513,-9.314062,-0.12981063
800990397,3,1741275464225048700,-0.63559353,-10.043873,0.14117654
800990407,3,1741275464235054325,-0.28414768,-10.79163,0.535095
800990417,3,1741275464245235732,-0.006879365,-11.155937,0.94277215
800990427,3,1741275464255417346,0.21535404,-11.223535,1.3046865
800990437,3,1741275464265599638,0.12472588,-11.050653,1.1943176
800990448,3,1741275464275735054,-0.4543372,-10.703694,0.6586244
800990458,3,1741275464285718336,-0.9349955,-10.430314,0.28953153
800990468,3,1741275464295702294,-1.0139586,-10.306785,-0.006879365
800990478,3,1741275464305686252,-0.79142606,-10.199407,-0.11425728
800990488,3,1741275464315670211,-0.39840496,-10.249955,0.092422776
800990498,3,1741275464325653961,-0.2000998,-10.476974,0.24616162
800990508,3,1741275464335636825,-0.15583257,-10.656436,0.44177487
800990518,3,1741275464345619273,-0.18903299,-10.712069,0.75583285
800990527,3,1741275464355605263,-0.14506488,-10.790134,0.6299106
800990537,3,1741275464365589013,0.15164514,-10.914262,0.5288138
800990547,3,1741275464375571877,0.3272185,-11.022837,0.45553362
800990557,3,1741275464385554690,0.26949164,-10.818251,0.3281158
800990567,3,1741275464395540002,0.22313072,-10.503893,0.26021945
800990577,3,1741275464405523544,-0.0023928226,-10.197911,0.14057833
800990587,3,1741275464415493961,-0.4334,-10.145268,0.07148558
800990597,3,1741275464425323232,-0.86859465,-10.23799,0.37956148
800990607,3,1741275464435340575,-0.98674023,-10.411171,0.7689934
800990617,3,1741275464445521982,-0.64905316,-10.533205,1.0462617
800990628,3,1741275464455703648,-0.03619144,-10.445568,1.2337992
800990638,3,1741275464465882294,0.45134616,-10.1033945,1.2430713
800990648,3,1741275464475997502,0.69332033,-9.8524475,1.1264212
800990658,3,1741275464485981461,0.34426737,-9.81476,0.8500503
800990668,3,1741275464495965159,-0.3469593,-10.056436,0.45224348
800990678,3,1741275464505948492,-0.89371926,-10.356136,-0.0065802624
800990688,3,1741275464515932450,-1.2233306,-10.516156,-0.2105684
800990698,3,1741275464525916409,-1.3971093,-10.551451,-0.076570325
800990708,3,1741275464535899846,-1.5098711,-10.576575,0.20398813
800990718,3,1741275464545882450,-1.4030914,-10.719846,0.2653042
800990728,3,1741275464555867659,-0.77647096,-10.756336,0.25004998
800990738,3,1741275464565851617,-0.012861421,-10.5385895,0.33050862
800990748,3,1741275464575835315,0.5033901,-10.154541,0.4232305
800990758,3,1741275464585818648,0.8219346,-9.819845,0.5886344
800990768,3,1741275464595802086,0.9882358,-9.660423,0.6263213
800990778,3,1741275464605772502,0.91166544,-9.582058,0.4863412
800990788,3,1741275464615672138,0.5838487,-9.533604,0.34965122
800990798,3,1741275464625783232,0.12143575,-9.573384,0.45254257
800990808,3,1741275464635812294,-0.3047858,-9.602397,0.61884373
800990818,3,1741275464645993700,-0.4779663,-9.743574,0.79710907
800990828,3,1741275464656171357,-0.53659046,-9.92154,0.9305089
800990838,3,1741275464666276200,-0.6792625,-10.162617,0.99601245
800990848,3,1741275464676260159,-0.7935198,-10.258629,1.0205388
800990858,3,1741275464686244117,-0.8853444,-10.158429,0.9167502
800990868,3,1741275464696227763,-0.64636123,-9.890134,0.9421739
800990878,3,1741275464706211148,-0.2973082,-9.556036,0.83688974
800990888,3,1741275464716194482,-0.11964113,-9.238389,0.69092757
800990898,3,1741275464726176669,0.0026919255,-9.057133,0.6589235
800990908,3,1741275464736158857,0.042173497,-9.016754,0.6684948
800990918,3,1741275464746142086,-0.0317049,-9.030811,0.6858428
800990928,3,1741275464756130315,-0.014955142,-9.132806,0.7423732
800990938,3,1741275464766113700,0.18574286,-9.230911,0.9924232
800990948,3,1741275464776097659,0.29970104,-9.163613,1.0331012
800990958,3,1741275464786081617,0.29850462,-9.058928,0.7752745
800990968,3,1741275464796065575,0.17407785,-9.154042,0.56829536
800990978,3,1741275464806048909,-0.05503492,-9.383753,0.5404788
800990988,3,1741275464816031929,0.024526432,-9.8219385,0.6831509
800990998,3,1741275464826016721,0.20997019,-10.297512,0.91525465
800991008,3,1741275464836000107,0.28713873,-10.596914,1.2406785
800991018,3,1741275464845984065,0.3077768,-10.554143,1.5107684
800991028,3,1741275464855968023,0.24107689,-10.426426,1.5496517
800991038,3,1741275464865951982,0.008973085,-10.161719,1.4557334
800991048,3,1741275464875935315,-0.15254244,-9.895817,1.2472588
800991058,3,1741275464885918284,-0.11216356,-9.811171,0.9200403
800991068,3,1741275464895902815,0.03888337,-9.780065,0.67088765
800991078,3,1741275464905886773,0.23449662,-9.605389,0.56769717
800991088,3,1741275464915870732,0.5051847,-9.39482,0.6230312
800991098,3,1741275464925854377,0.6242276,-9.373284,0.76510507
800991108,3,1741275464935837138,0.41665024,-9.61825,0.89042914
800991118,3,1741275464945819638,0.12233306,-9.849456,0.93738824
800991128,3,1741275464955805888,0.027816564,-9.928121,1.0788639
800991138,3,1741275464965789534,-0.039780676,-9.993923,1.2349956
800991148,3,1741275464975772919,-0.14626129,-9.882058,1.3866407
800991158,3,1741275464985756877,-0.24077778,-9.745967,1.43689
800991168,3,1741275464995740836,-0.28175488,-9.587741,1.0387841
800991178,3,1741275465005724169,-0.17258233,-9.385248,0.5811568
800991188,3,1741275465015707398,0.09750752,-9.225228,0.2847459
800991198,3,1741275465025692190,0.4657031,-9.008977,0.1160519
800991208,3,1741275465035675575,0.76540416,-8.747861,0.30209386
800991218,3,1741275465045659534,0.9089735,-8.612068,0.66370916
800991228,3,1741275465055643492,0.7106683,-8.663513,0.9987044
800991238,3,1741275465065627450,0.22402802,-8.69133,1.2406785
800991247,3,1741275465075610784,-0.04007978,-8.7418785,1.3564314
800991257,3,1741275465085534117,-0.3475575,-8.756834,1.2894323
800991267,3,1741275465095454742,-0.54376894,-8.466703,0.94785684
800991277,3,1741275465105561877,-0.38584265,-8.074879,0.5841478
800991288,3,1741275465115615523,-0.14446667,-7.6749787,0.23928227
800991298,3,1741275465125796929,0.17647067,-7.524829,0.1486541
800991308,3,1741275465135978700,0.46630132,-7.5400834,0.29671
800991318,3,1741275465146081513,0.5706882,-7.6259255,0.31136605
800991328,3,1741275465156068596,0.5096712,-7.92114,0.3056831
800991338,3,1741275465166052190,0.17377874,-8.437093,0.27068806
800991348,3,1741275465176035627,0.007477571,-8.930613,0.29072794
800991358,3,1741275465186019586,-0.0840479,-9.25125,0.6086743
800991368,3,1741275465196003544,-0.2527419,-9.209974,0.93649095
800991378,3,1741275465205987502,-0.17527425,-8.963513,1.14018
800991388,3,1741275465215971096,0.21326032,-8.566903,1.1670992
800991398,3,1741275465225953804,0.5449654,-8.125129,0.7815557
800991408,3,1741275465235937242,0.5602196,-7.708478,0.35204405
800991418,3,1741275465245922242,0.27846473,-7.3489566,0.09810573
800991428,3,1741275465255906200,-0.35862428,-7.129714,-0.1381855
800991438,3,1741275465265890159,-0.9726824,-7.1898336,-0.2000998
800991448,3,1741275465275873752,-1.3857434,-7.489236,-0.020338992
800991458,3,1741275465285857190,-1.393221,-7.9106717,0.41814575
800991468,3,1741275465295841148,-1.238884,-8.047063,0.7956135
800991478,3,1741275465305825107,-0.87607217,-8.089535,0.7968099
800991488,3,1741275465315809065,-0.26979074,-8.078468,0.78364944
800991498,3,1741275465325792659,0.15134603,-7.9205422,0.75553375
800991508,3,1741275465335775367,0.12233306,-7.682456,0.7710871
800991518,3,1741275465345758804,-0.067896344,-7.7967134,0.96849495
800991528,3,1741275465355743804,-0.17288144,-8.075478,1.3226327
800991538,3,1741275465365727763,-0.14117654,-8.338987,1.7087744
800991548,3,1741275465375711721,0.040378883,-8.5728855,2.0832512
800991558,3,1741275465385695315,-0.12532409,-8.621938,2.039283
800991568,3,1741275465395678752,-0.30149564,-8.784949,1.7623138
800991578,3,1741275465405662711,-0.5195416,-9.066106,1.3965111
800991588,3,1741275465415646669,-0.7088737,-9.09153,1.1072787
800991598,3,1741275465425630263,-0.87607217,-8.976076,0.9496515
800991608,3,1741275465435613700,-1.1527423,-8.8746805,0.75254273
800991617,3,1741275465445597659,-1.160519,-8.949755,0.7498508
800991627,3,1741275465455581617,-0.7932207,-9.285647,1.1138589
800991637,3,1741275465465565575,-0.5189434,-9.651151,1.6235301
800991647,3,1741275465475549169,-0.44895336,-9.8348,1.782952
800991657,3,1741275465485532607,-0.66999036,-10.040882,1.5900307
800991667,3,1741275465495516565,-0.9077771,-10.255039,1.3639089
800991677,3,1741275465505500523,-0.9984053,-10.27149,1.2643076
800991687,3,1741275465515484482,-0.83718884,-10.106685,1.1569297
800991697,3,1741275465525468075,-0.62093747,-9.93799,0.9816555
800991707,3,1741275465535451513,-0.43818563,-9.833903,0.88025963
800991717,3,1741275465545435471,-0.2111666,-9.834202,0.887139
800991727,3,1741275465555419429,-0.16660027,-9.875478,0.9487542
800991737,3,1741275465565403388,-0.25543383,-9.921839,1.0707881
800991747,3,1741275465575386982,-0.360718,-9.979267,1.1739786
800991757,3,1741275465585370419,-0.49202415,-9.988539,1.1449656
800991767,3,1741275465595354377,-0.5285147,-9.948758,1.1715858
800991777,3,1741275465605338336,-0.4339982,-9.835997,1.1069796
800991787,3,1741275465615322294,-0.32482567,-9.599406,1.1395818
800991797,3,1741275465625305888,-0.1788635,-9.449855,1.2493526
800991807,3,1741275465635289325,-0.13938192,-9.491729,1.387239
800991817,3,1741275465645273284,-0.15643078,-9.605389,1.4204394
800991827,3,1741275465655257242,-0.09032906,-9.8015995,1.378864
800991837,3,1741275465665240836,-0.06580263,-9.912567,1.5062819
800991847,3,1741275465675224273,-0.27816564,-9.967302,1.410569
800991857,3,1741275465685208232,-0.55393845,-9.894321,1.2532408
800991867,3,1741275465695192190,-0.65084773,-9.742078,1.0588241
800991877,3,1741275465705176148,-0.69122666,-9.468101,0.77826554
800991887,3,1741275465715159742,-0.6041877,-9.1719885,0.74207413
800991897,3,1741275465725143179,-0.35682967,-8.946166,0.91136634
800991907,3,1741275465735127138,-0.15882361,-8.752347,1.0420742
800991917,3,1741275465745111096,-0.16749759,-8.690433,1.0516455
800991927,3,1741275465755095054,-0.21296121,-8.787342,0.9508479
800991937,3,1741275465765078648,-0.3185445,-8.997611,0.87367934
800991947,3,1741275465775062086,-0.39661035,-9.271291,0.9945169
800991957,3,1741275465785046044,-0.41156548,-9.693624,1.102194
800991967,3,1741275465795030002,-0.20309082,-10.090234,1.3576277
800991977,3,1741275465805013961,0.30717862,-10.331311,1.80359
800991987,3,1741275465814997554,0.782453,-10.102198,2.1340988
800991997,3,1741275465824980992,0.91196454,-9.753145,1.9704895
800992007,3,1741275465834964950,0.74177504,-9.6173525,1.6660028
800992017,3,1741275465844948909,0.48454657,-9.510872,1.3010973
800992027,3,1741275465854932867,0.098703936,-9.478569,1.0513464
800992037,3,1741275465864916461,-0.23928227,-9.498309,0.7289136
800992047,3,1741275465874899898,-0.6481558,-9.789935,0.52283174
800992057,3,1741275465884883857,-1.105484,-10.276875,0.8952148
800992067,3,1741275465894867815,-1.5664015,-10.682756,1.2236297
800992077,3,1741275465904851773,-1.6633109,-11.0144615,1.6163517
800992087,3,1741275465914835367,-1.3791631,-11.193325,2.0279171
800992097,3,1741275465924818804,-0.9170493,-10.939985,2.2214367
800992107,3,1741275465934802763,-0.104087785,-10.2571335,2.1364915
800992117,3,1741275465944786721,0.56829536,-9.296714,1.8349959
800992127,3,1741275465954770679,0.7749754,-8.661719,1.5071791
800992137,3,1741275465964754273,0.4334,-8.65813,1.2580265
800992147,3,1741275465974737711,-0.2862414,-9.217153,1.3594223
800992157,3,1741275465984721669,-1.1473584,-9.775877,1.3196417
800992167,3,1741275465994705627,-2.0318055,-10.184451,1.1072787
800992177,3,1741275466004689586,-2.4643083,-10.231411,0.91854477
800992187,3,1741275466014673179,-2.5109682,-9.98166,0.5246264
800992197,3,1741275466024656617,-2.1858435,-9.591331,0.2335993
800992207,3,1741275466034640575,-1.4889339,-9.423833,0.17347965
800992217,3,1741275466044624534,-0.83389866,-9.746864,0.33409786
800992226,3,1741275466054608127,-0.4214359,-10.219746,0.85872424
800992236,3,1741275466064591565,-0.07537391,-10.41835,1.4392828
800992246,3,1741275466074575523,0.5315057,-10.330414,2.0057836
800992256,3,1741275466084559482,1.1790633,-9.923933,2.2881367
800992266,3,1741275466094543440,1.5900307,-9.277572,2.0850458
800992276,3,1741275466104527034,1.7410775,-8.618349,1.6528423
800992286,3,1741275466114510471,1.5089738,-8.031808,1.0956137
800992296,3,1741275466124494429,0.83030945,-7.853244,0.58683974
800992306,3,1741275466134478388,-0.014955142,-8.28784,0.34785658
800992316,3,1741275466144462346,-0.637089,-9.278768,0.32333016
800992326,3,1741275466154445940,-0.8709874,-10.255039,0.6158527
800992336,3,1741275466164429377,-1.1039885,-11.013564,0.94307125
800992346,3,1741275466174413336,-1.2664014,-11.696715,1.1159526
800992356,3,1741275466184397294,-1.2140584,-12.080464,1.3651053
800992366,3,1741275466194381252,-0.9741779,-11.820245,1.7943178
800992376,3,1741275466204364846,-0.25872394,-11.143973,2.3015962
800992386,3,1741275466214348284,0.65024954,-10.232307,2.5408785
800992396,3,1741275466224332242,1.2149557,-9.361918,2.4023938
800992406,3,1741275466234316200,1.6513467,-8.569296,1.7608184
800992416,3,1741275466244300159,1.326222,-8.074879,0.9284152
800992426,3,1741275466254283752,-0.22612174,-8.175676,0.60717875
800992436,3,1741275466264267190,-1.6857436,-8.699107,1.032503
800992446,3,1741275466274251148,-2.4107687,-9.085249,1.5771692
800992456,3,1741275466284235107,-1.998306,-9.104391,1.9597218
800992466,3,1741275466294219065,-0.98016,-8.906086,2.1921246
800992476,3,1741275466304202659,0.13579269,-8.752048,2.4011974
800992486,3,1741275466314185367,0.8895318,-8.566006,2.4661028
800992496,3,1741275466324168857,1.0190433,-8.472386,2.3195424
800992506,3,1741275466334154013,0.73130643,-8.6599245,1.945963
800992516,3,1741275466344137450,0.12053844,-8.920742,1.75693
800992526,3,1741275466354121409,-0.79142606,-9.18814,1.8323039
800992536,3,1741275466364105367,-1.5622141,-9.587741,1.6630118
800992546,3,1741275466374089325,-2.0464616,-9.921839,1.4682958
800992556,3,1741275466384071454,-2.0437696,-10.317851,1.6603198
800992566,3,1741275466394054892,-1.4901303,-10.62832,1.8631115
800992576,3,1741275466404038850,-0.88683987,-10.593325,2.0581267
800992586,3,1741275466414022079,-0.37776688,-10.183853,2.1050856
800992596,3,1741275466424005517,-0.005383851,-9.900602,1.9944177
800992606,3,1741275466433990517,0.3792624,-9.767203,1.7608184
800992616,3,1741275466443974110,0.57188463,-9.771091,1.6746768
800992626,3,1741275466453957548,0.23778675,-9.985249,1.6277176
800992636,3,1741275466463941506,-0.41605204,-10.18505,1.6163517
800992646,3,1741275466473925464,-1.0519446,-10.385748,1.3483555
800992656,3,1741275466483909423,-1.3773686,-10.585847,1.2002996
800992666,3,1741275466493893017,-1.4778671,-10.694422,1.3851452
800992676,3,1741275466503876454,-1.148854,-10.266705,1.5376877
800992686,3,1741275466513860412,-0.5063811,-9.295518,1.4359927
800992696,3,1741275466523844371,-0.25663024,-8.88784,1.451247
800992706,3,1741275466533828329,-0.57876396,-8.981161,1.5224334
800992716,3,1741275466543811923,-1.1853445,-9.189336,1.4338989
800992726,3,1741275466553795360,-1.637588,-9.601201,1.660918
800992736,3,1741275466563779319,-1.7389839,-9.935597,2.0285153
800992746,3,1741275466573763277,-1.5819548,-10.136894,2.3321047
800992756,3,1741275466583747235,-1.2655041,-10.22154,2.4726832
800992766,3,1741275466593730829,-0.750449,-10.210473,2.5558336
800992776,3,1741275466603714267,-0.21774685,-9.952348,2.6898317
800992786,3,1741275466613698225,0.16181463,-9.418449,2.7873392
800992796,3,1741275466623682183,0.5703891,-8.95813,2.7472596
800992806,3,1741275466633666142,0.81924266,-8.722735,2.477768
800992816,3,1741275466643649735,0.7833503,-8.730213,2.3042881
800992826,3,1741275466653633173,0.41545382,-8.759825,2.3327029
800992836,3,1741275466663617131,0.01375873,-8.942576,2.4867408
800992845,3,1741275466673601089,-0.40468612,-9.294023,2.7394829
800992855,3,1741275466683585048,-0.74476606,-9.639187,2.9808588
800992865,3,1741275466693568642,-0.9299107,-9.77468,2.9455647
800992875,3,1741275466703552079,-0.9245269,-9.679565,2.7948167
800992885,3,1741275466713536037,-0.8006983,-9.552746,2.8390841
800992895,3,1741275466723519996,-0.7582257,-9.67807,3.0783663
800992905,3,1741275466733503954,-0.7390831,-9.822537,3.455236
800992915,3,1741275466743487548,-0.82971126,-9.84467,3.6930227
800992925,3,1741275466753470985,-0.9412766,-9.856036,3.6804602
800992935,3,1741275466763454944,-1.1739786,-9.891929,3.551547
800992945,3,1741275466773438902,-1.2071791,-9.742677,3.4564323
800992955,3,1741275466783422860,-0.7827521,-9.329616,3.3293135
800992965,3,1741275466793406454,-0.08733802,-8.918947,3.3864422
800992975,3,1741275466803389892,0.42951167,-8.55464,3.566502
800992985,3,1741275466813373121,0.60717875,-8.241479,3.5584264
800992995,3,1741275466823356350,0.48065826,-8.094919,3.4342988
800993005,3,1741275466833341350,0.16450655,-8.129914,3.6077783
800993015,3,1741275466843325308,-0.27068806,-8.319545,3.906283
800993025,3,1741275466853309267,-0.83030945,-8.736495,4.265805
800993035,3,1741275466863293225,-1.2343974,-9.1510515,4.4805603
800993045,3,1741275466873276819,-1.2412767,-9.404989,4.490132
800993055,3,1741275466883260256,-0.7689934,-9.563813,4.566104
800993065,3,1741275466893244214,-0.29012975,-9.343075,4.34746
800993075,3,1741275466903228173,0.011066805,-9.016455,4.371089
800993085,3,1741275466913212131,0.23509483,-8.932108,4.3211384
800993095,3,1741275466923195725,0.21355942,-8.840582,4.2535415
800993105,3,1741275466933179162,-0.006879365,-8.722437,4.2167516
800993115,3,1741275466943163121,-0.20937198,-8.604889,4.388736
800993125,3,1741275466953147079,-0.2958127,-8.39133,4.315755
800993135,3,1741275466963131037,-0.5174479,-8.365906,4.4168515
800993145,3,1741275466973114631,-1.0088738,-8.538189,4.6342993
800993155,3,1741275466983098069,-1.3531412,-8.846564,4.6202416
800993165,3,1741275466993082027,-1.3166506,-9.192626,4.779663
800993175,3,1741275467003065985,-1.128515,-9.292527,4.915755
800993185,3,1741275467013049944,-0.42831525,-9.198309,4.853542
800993195,3,1741275467023033537,0.5168497,-9.069695,5.0362935
800993205,3,1741275467033016975,0.91106725,-8.741579,5.399105
800993215,3,1741275467043000933,0.8237292,-8.260323,5.3312087
800993225,3,1741275467052984892,0.56859446,-7.975876,5.2253265
800993235,3,1741275467062968850,0.1788635,-7.9941216,5.0808597
800993245,3,1741275467072952444,-0.3610171,-8.229217,4.9232326
800993255,3,1741275467082935881,-0.9026923,-8.5887375,5.308178
800993265,3,1741275467092919839,-1.2951152,-8.901898,5.701199
800993275,3,1741275467102903798,-1.2705889,-8.784351,5.5486565
800993285,3,1741275467112887756,-0.58594245,-8.155637,5.387739
800993295,3,1741275467122871350,0.15433706,-7.6567335,5.5052867
800993305,3,1741275467132854787,0.9661021,-7.408777,5.8579288
800993315,3,1741275467142838746,1.311865,-7.4766736,6.0714884
800993325,3,1741275467152822704,0.8285148,-7.708478,6.133403
800993335,3,1741275467162806662,0.14536397,-8.081161,6.0427747
800993345,3,1741275467172790256,-0.29910284,-8.414361,6.033502
800993355,3,1741275467182773694,-0.7615158,-8.618947,6.1567326
800993365,3,1741275467192757652,-0.98913306,-8.710473,6.3601227
800993375,3,1741275467202741610,-0.90358967,-8.420044,6.404689
800993385,3,1741275467212725569,-0.6963114,-7.7620177,6.1827545
800993395,3,1741275467222709527,-0.3717848,-7.42792,5.9557357
800993405,3,1741275467232693121,-0.2105684,-7.5816584,5.8743796
800993415,3,1741275467242676558,-0.47916272,-7.669595,6.087341
800993425,3,1741275467252660517,-0.9343972,-7.6016984,6.0900326
800993435,3,1741275467262644475,-1.1425728,-7.598408,5.845965
800993445,3,1741275467272628433,-1.2759727,-7.559525,5.859125
800993455,3,1741275467282612027,-1.5343975,-7.585547,5.93091
800993464,3,1741275467292595464,-1.8966111,-7.5789666,6.1468625
800993474,3,1741275467302579423,-2.0105693,-7.5637126,6.2494545
800993484,3,1741275467312562652,-1.5837495,-7.5376906,6.146264
800993494,3,1741275467322545881,-1.0836495,-7.3169527,6.1157556
800993504,3,1741275467332530881,-0.14416756,-7.066005,5.95095
800993514,3,1741275467342514110,0.67447686,-6.701399,5.7200427
800993524,3,1741275467352497548,0.7103692,-6.404988,5.712864
800993534,3,1741275467362482548,0.06699903,-6.495317,5.599803
800993544,3,1741275467372466142,-0.9768698,-6.669395,5.689833
800993554,3,1741275467382449579,-2.004288,-6.9508505,6.055636
800993564,3,1741275467392433537,-2.4481566,-7.200003,6.2234325
800993574,3,1741275467402417496,-2.1999013,-7.4494553,6.154938
800993584,3,1741275467412400725,-1.5206388,-7.408179,6.157929
800993594,3,1741275467422383694,-0.9711869,-7.1632137,6.067301
800993604,3,1741275467432368850,-0.6242276,-6.88116,5.9557357
800993614,3,1741275467442352287,-0.23539393,-6.7005014,5.8322062
800993624,3,1741275467452336246,-0.047258247,-6.7322063,5.7723856
800993634,3,1741275467462320204,-0.46959144,-6.995716,5.889933
800993644,3,1741275467472304162,-1.2086746,-7.233204,6.180063
800993654,3,1741275467482287756,-2.0440688,-7.525128,6.4145594
800993664,3,1741275467492271194,-2.542673,-7.8287177,6.580561
800993674,3,1741275467502255152,-2.5866413,-7.756335,6.3795643
800993684,3,1741275467512239110,-2.2758734,-7.504191,6.026324
800993694,3,1741275467522223069,-1.643271,-7.4007015,5.9066825
800993704,3,1741275467532206662,-1.0157533,-7.4901333,5.8911295
800993714,3,1741275467542190100,-0.43040898,-7.513762,6.1232333
800993724,3,1741275467552174058,-0.06819545,-7.3378897,6.20758
800993734,3,1741275467562158017,0.35473597,-6.8425756,6.0544395
800993744,3,1741275467572141975,-0.46091747,-6.9188466,6.9263244
800993754,3,1741275467582125569,-1.3956138,-7.469495,6.9762745
800993764,3,1741275467592109006,-1.7264216,-7.8376904,6.5234327
800993774,3,1741275467602092964,-1.495215,-7.6827555,6.495018
800993784,3,1741275467612076923,-1.3127624,-7.6594253,6.001498
800993794,3,1741275467622060881,-1.2684951,-7.7677007,5.768198
800993804,3,1741275467632044475,-1.1551352,-7.7677007,6.0009003
800993814,3,1741275467642027912,-1.0731809,-7.8759756,6.4052873
800993824,3,1741275467652011871,-1.0630114,-8.010273,6.864111
800993834,3,1741275467661995829,-1.3187444,-8.059027,6.9939213
800993844,3,1741275467671979787,-1.5774683,-7.830213,6.8931236
800993854,3,1741275467681963746,-2.027319,-7.6974115,6.701698
800993864,3,1741275467691947339,-2.3925235,-7.759924,6.370292
800993874,3,1741275467701930777,-2.3398814,-7.7560353,6.224928
800993884,3,1741275467711914735,-2.2854447,-7.7889366,6.19083
800993894,3,1741275467721897964,-1.9848464,-7.9148593,6.2581286
800993904,3,1741275467731881402,-1.6190436,-7.919944,6.486045
800993914,3,1741275467741866402,-0.9532407,-7.7961154,6.8599234
800993924,3,1741275467751849631,-0.4848457,-7.414759,6.9879394
800993934,3,1741275467761832756,-0.34426737,-7.085447,6.491728
800993944,3,1741275467771817235,-0.41365921,-7.0435724,6.5697937
800993954,3,1741275467781801194,-1.0262218,-7.2044897,6.6963143
800993964,3,1741275467791785152,-1.6480566,-7.4709907,6.544669
800993974,3,1741275467801769110,-1.8349959,-7.602895,6.536294
800993984,3,1741275467811752704,-1.7706888,-7.6345997,6.6110697
800993994,3,1741275467821736142,-1.713261,-7.4730844,6.901798
800994004,3,1741275467831720100,-1.7973089,-7.2556367,7.0585275
800994014,3,1741275467841704058,-1.7778672,-7.225427,7.1171517
800994024,3,1741275467851688017,-1.3127624,-7.3226357,7.0779696
800994034,3,1741275467861671975,-0.9164511,-7.422835,7.0612197
800994044,3,1741275467871655569,-0.7325028,-7.3307114,7.1656065
800994054,3,1741275467881639006,-0.86261255,-7.1862445,7.2640114
800994064,3,1741275467891622964,-0.8383852,-6.818348,7.277172
800994073,3,1741275467901606923,-0.84436727,-6.285646,7.2448688
800994083,3,1741275467911590881,-0.8748758,-5.7137613,7.11117
800994093,3,1741275467921574475,-1.128515,-5.44756,6.8168526
800994103,3,1741275467931557912,-1.5248263,-5.5331035,6.684051
800994113,3,1741275467941541871,-1.8741783,-5.918348,6.940382
800994123,3,1741275467951525829,-2.117349,-6.195915,7.204789
800994133,3,1741275467961509058,-1.9336998,-6.236892,7.381858
800994143,3,1741275467971492287,-1.1790633,-6.052047,7.545168
800994153,3,1741275467981477287,-1.1850454,-6.2111692,6.7205415
800994163,3,1741275467991460517,-1.5278172,-6.1046886,6.4923263
800994173,3,1741275468001372079,-1.8158532,-6.180063,6.4992056
800994183,3,1741275468011318694,-2.0315065,-6.361618,6.6655064
800994193,3,1741275468021500100,-2.2492533,-6.41097,7.516454
800994203,3,1741275468031587756,-1.9007984,-6.3547387,7.5233335
800994213,3,1741275468041491923,-1.2487543,-6.105586,7.573882
800994223,3,1741275468051444683,-0.8341978,-6.073283,7.5936227
800994234,3,1741275468061626089,-1.0316057,-6.1660047,7.332805
800994244,3,1741275468071807912,-1.4255241,-6.5090756,6.926025
800994254,3,1741275468081899371,-1.7264216,-6.788737,6.899106
800994264,3,1741275468091886142,-1.7736797,-6.8665037,7.068398
800994274,3,1741275468101870100,-1.4994025,-6.6499534,7.4715886
800994284,3,1741275468111854058,-1.2370893,-6.2736816,7.2230344
800994294,3,1741275468121837600,-0.9625129,-5.936294,7.1581287
800994304,3,1741275468131821089,-0.573081,-5.7559347,7.269096
800994314,3,1741275468141805048,-0.41575295,-5.7640104,7.3106713
800994324,3,1741275468151789006,-0.5282156,-5.972186,7.5092754
800994334,3,1741275468161772964,-0.96729857,-6.102595,7.826923
800994344,3,1741275468171756506,-1.5936198,-6.332007,7.9597244
800994354,3,1741275468181739162,-1.7688942,-6.4441705,7.885547
800994364,3,1741275468191722808,-1.8927227,-6.4010997,7.4566336
800994374,3,1741275468201707704,-1.5113666,-6.3711896,7.342376
800994384,3,1741275468211690829,-0.79501534,-6.0041904,7.466504
800994394,3,1741275468221674475,-0.29940194,-5.4984074,7.639385
800994404,3,1741275468231659371,-0.059820566,-5.4723854,8.436495
800994414,3,1741275468241643329,-0.3173481,-6.1435723,8.753842
800994424,3,1741275468251626871,-0.95742816,-6.7208405,8.530712
800994433,3,1741275468261610360,-1.5056837,-6.7390857,8.674281
800994443,3,1741275468271594319,-1.6369898,-6.4142604,8.69791
800994453,3,1741275468281578277,-1.5610176,-5.92762,8.370692
800994463,3,1741275468291562235,-1.5101702,-5.458328,8.151749
800994473,3,1741275468301545777,-1.4470595,-5.1442695,8.065009
800994483,3,1741275468311529267,-1.102194,-5.2025948,8.007581
800994493,3,1741275468321513225,-0.81565344,-5.3126645,8.244471
800994503,3,1741275468331496350,-1.0378869,-5.2692947,8.293523
800994513,3,1741275468341479787,-1.4712868,-5.189434,8.185248
800994523,3,1741275468351464683,-1.5424733,-5.3147583,7.993224
800994533,3,1741275468361447808,-1.1739786,-5.5076795,7.9627156
800994543,3,1741275468371431454,-0.49441698,-5.5968122,7.9151583
800994553,3,1741275468381416350,0.15373886,-5.4628143,8.000702
800994563,3,1741275468391400308,0.43728834,-4.9603214,8.206185
800994573,3,1741275468401383850,0.61764735,-4.4024944,8.213064
800994583,3,1741275468411366506,0.34067813,-4.2864428,8.06112
800994593,3,1741275468421350256,-0.4749753,-4.5801616,8.080562
800994603,3,1741275468431335204,-1.5194423,-4.9692945,8.209774
800994613,3,1741275468441318694,-2.0946171,-5.337789,8.227122
800994623,3,1741275468451302652,-2.2848465,-5.3922257,8.282456
800994633,3,1741275468461286610,-2.1993032,-5.0922256,8.266903
800994643,3,1741275468471270569,-1.6052849,-4.670192,8.280961
800994653,3,1741275468481253694,-1.0274183,-4.256233,8.623135
800994663,3,1741275468491237339,-0.8985049,-4.0301113,8.82802
800994673,3,1741275468501221819,-1.0510473,-4.154538,8.917751
800994683,3,1741275468511205308,-1.2852448,-4.2406797,8.850154
800994693,3,1741275468521189267,-1.2382857,-4.258626,8.606684
800994703,3,1741275468531172392,-0.8069794,-4.505386,8.50469
800994713,3,1741275468541156037,-0.37716866,-4.9639106,8.233703
800994723,3,1741275468551140933,-0.5401797,-4.988736,8.084749
800994733,3,1741275468561124475,-1.0163515,-4.916353,8.056036
800994743,3,1741275468571107964,-1.4928222,-4.862814,8.200203
800994753,3,1741275468581091923,-1.6103697,-4.8652067,8.543573
800994763,3,1741275468591075881,-1.4449657,-5.122435,9.16481
800994773,3,1741275468601059839,-1.3953147,-5.022834,9.623035
800994783,3,1741275468611042964,-1.218545,-4.5670013,9.416953
800994793,3,1741275468621025152,-0.8324032,-4.189533,9.000303
800994803,3,1741275468631011037,-0.18215363,-3.9990048,8.627322
800994813,3,1741275468640994527,0.26081768,-3.970291,8.335996
800994823,3,1741275468650978485,0.050847482,-4.3241296,8.360822
800994833,3,1741275468660962444,-0.45882374,-4.7542396,8.707183
800994843,3,1741275468670946402,-0.69242305,-4.9199424,8.867501
800994853,3,1741275468680930360,-0.85812604,-4.9058847,8.919545
800994863,3,1741275468690913902,-0.85034937,-4.7392845,9.056235
800994873,3,1741275468700897392,-0.7516454,-4.4668016,8.903992
800994883,3,1741275468710880517,-0.5608178,-4.2921257,8.719147
800994893,3,1741275468720792079,-0.2976073,-4.258327,8.633603
800994903,3,1741275468730762287,-0.19830517,-4.4336014,8.640781
800994913,3,1741275468740826506,-0.21206391,-4.6178484,8.712566
800994923,3,1741275468750914162,-0.2114657,-4.714758,8.809476
800994933,3,1741275468761095569,-0.2958127,-4.621737,9.019745
800994943,3,1741275468771277496,-0.4968098,-4.4186463,9.126525
800994953,3,1741275468781459787,-0.8605189,-4.1036906,9.247662
800994964,3,1741275468791642079,-1.3875381,-3.949952,9.4178505
800994974,3,1741275468801824371,-1.774278,-3.920939,9.508479
800994984,3,1741275468811892079,-1.8693926,-3.9490547,9.256635
800994994,3,1741275468821877496,-1.6689938,-3.9577286,8.965308
800995004,3,1741275468831861454,-1.3671991,-4.046562,8.769396
800995014,3,1741275468841845412,-0.84406817,-4.2499523,8.556135
800995024,3,1741275468851829371,-0.08644072,-4.618148,8.622537
800995034,3,1741275468861813329,0.5667999,-4.8637114,9.027223
800995044,3,1741275468871796767,1.0295119,-4.7772703,9.270692
800995054,3,1741275468881780360,1.3959129,-4.5765724,9.291031
800995064,3,1741275468891764319,0.997807,-4.5071807,9.298808
800995074,3,1741275468901748277,0.083748795,-4.4228334,9.326325
800995084,3,1741275468911731194,-0.78843504,-4.2705903,9.523733
800995094,3,1741275468921630985,-1.320539,-4.347759,9.735199
800995104,3,1741275468931630360,-1.410868,-4.3094735,9.690333
800995114,3,1741275468941682183,-1.1162517,-4.1428733,9.332308
800995124,3,1741275468951769839,-0.5132605,-4.0767717,9.107981
800995134,3,1741275468961951246,0.01375873,-4.147659,8.742178
800995144,3,1741275468972003746,0.5605187,-4.0854454,8.545069
800995154,3,1741275468982079683,0.86171526,-3.9678981,8.539984
800995164,3,1741275468992169996,0.66969126,-4.019045,8.850752
800995174,3,1741275469002173381,0.31615168,-3.912564,9.247362
800995184,3,1741275469012157027,0.2219343,-3.6056845,9.579367
800995194,3,1741275469022140985,0.21834506,-3.3741791,9.848558
800995204,3,1741275469032124944,0.19202402,-3.3152559,9.949356
800995214,3,1741275469042108902,0.3711866,-3.3251262,9.678668
800995224,3,1741275469052092860,0.634098,-3.255136,9.513564
800995234,3,1741275469062076246,0.5353941,-3.3550365,9.342477
800995244,3,1741275469072059892,0.62931234,-3.1806595,8.968598
800995254,3,1741275469082043850,0.8712866,-2.836093,8.673683
800995264,3,1741275469092027808,0.7316055,-2.6192434,8.772088
800995274,3,1741275469102011767,0.39212382,-2.6533413,8.8346
800995284,3,1741275469111994579,0.20488544,-2.7466612,8.9877405
800995294,3,1741275469121870829,0.07208378,-2.7269206,9.275477
800995304,3,1741275469131911506,-0.051146585,-2.725425,9.260822
800995314,3,1741275469141940569,-0.10109676,-2.804388,9.309277
800995324,3,1741275469152039944,-0.1585245,-2.8695927,9.450453
800995334,3,1741275469162069006,-0.11246266,-2.8779674,9.466604
800995344,3,1741275469172180100,-0.012263216,-2.778067,9.462418
800995354,3,1741275469182361506,0.12622139,-2.6955147,9.257831
800995364,3,1741275469192390569,0.34277186,-2.7409782,9.047562
800995374,3,1741275469202501662,0.52941203,-2.82712,9.080164
800995385,3,1741275469212683069,0.5829514,-3.1549366,9.134601
800995395,3,1741275469222865152,0.5485546,-3.3897324,9.25125
800995405,3,1741275469232956714,0.68225354,-3.493521,9.444471
800995415,3,1741275469242959423,0.6547361,-3.5449667,9.597911
800995425,3,1741275469252943381,0.4229314,-3.5671003,9.807881
800995435,3,1741275469262926662,0.0951147,-3.4866416,10.106087
800995445,3,1741275469272910412,0.06281159,-3.37388,10.329815
800995455,3,1741275469282894371,0.21355942,-3.3741791,10.156336
800995465,3,1741275469292878329,0.46301118,-3.4444683,9.660124
800995475,3,1741275469302862287,0.8276175,-3.461816,9.327821
800995485,3,1741275469312844892,1.0459626,-3.281158,9.042776
800995495,3,1741275469322697600,1.0405787,-3.0720851,8.863913
800995505,3,1741275469332770933,0.5315057,-2.85045,8.879167
800995515,3,1741275469342796975,0.23389842,-2.7182465,8.913264
800995525,3,1741275469352780933,0.16211374,-2.5202405,9.188439
800995535,3,1741275469362915881,0.061914288,-2.533401,9.5303135
800995545,3,1741275469373097287,-0.15224335,-2.778366,9.873982
800995555,3,1741275469383279423,-0.29491538,-2.9623144,10.072587
800995565,3,1741275469393302756,-0.18275183,-3.024827,10.145568
800995575,3,1741275469403287652,-0.0071784677,-3.0290143,10.051051
800995585,3,1741275469413270881,0.18065812,-3.0562327,9.652647
800995595,3,1741275469423254683,0.4660022,-2.9440691,9.526126
800995605,3,1741275469433238642,0.72023964,-2.7601209,9.698409
800995615,3,1741275469443221142,0.80488575,-2.6721847,9.762716
800995625,3,1741275469453205829,0.64935225,-2.594717,9.76152
800995635,3,1741275469463190100,0.3894319,-2.568396,9.749257
800995645,3,1741275469473174058,0.0026919255,-2.5893333,9.81506
800995655,3,1741275469483158017,-0.2551347,-2.5492535,9.763913
800995665,3,1741275469493141975,-0.45403808,-2.6072793,9.585648
800995675,3,1741275469503124475,-0.7573284,-2.6829524,9.709775
800995685,3,1741275469512965412,-0.79471624,-2.6506493,9.829716
800995695,3,1741275469522912496,-0.45194438,-2.4149563,9.778868
800995705,3,1741275469532753433,-0.17377874,-2.349752,9.615258
800995715,3,1741275469542865308,0.15433706,-2.2501507,9.283554
800995725,3,1741275469553046871,0.49800622,-1.9280169,9.052647
800995735,3,1741275469563228329,0.57816577,-1.6654046,8.838189
800995745,3,1741275469573410621,0.45583272,-1.494916,8.763115
800995755,3,1741275469583592912,0.53688955,-1.434198,8.695518
800995766,3,1741275469593775204,0.48963133,-1.6516458,8.708379
800995776,3,1741275469603957496,0.17048861,-2.0431714,8.881859
800995786,3,1741275469614139787,-0.14566308,-2.3165514,9.119945
800995796,3,1741275469624322079,-0.32243285,-2.4254248,9.399606
800995806,3,1741275469634504371,-0.037387855,-2.1882362,9.557233
800995817,3,1741275469644686662,-0.1058824,-2.07697,9.390633
800995827,3,1741275469654868954,-0.23539393,-2.129014,9.322138
800995837,3,1741275469665049892,-0.37417763,-2.1074786,9.3867445
800995847,3,1741275469675198850,-0.6646065,-2.0111675,9.334102
800995857,3,1741275469685182704,-0.84017986,-1.873281,9.168997
800995867,3,1741275469695164892,-0.8282157,-1.9375881,8.962317
800995877,3,1741275469704994214,-0.5736792,-2.094318,9.148957
800995887,3,1741275469715175621,-0.19890338,-2.3665016,9.533006
800995897,3,1741275469725357131,-0.07986046,-2.6751757,9.605987
800995907,3,1741275469735515881,0.047258247,-2.6036901,9.767203
800995917,3,1741275469745509787,0.08225328,-2.3988047,9.970892
800995928,3,1741275469755691194,0.116650105,-2.5501506,9.95175
800995938,3,1741275469765872756,0.21625134,-2.934797,9.812068
800995948,3,1741275469776053798,0.14356937,-3.28385,9.64158
800995958,3,1741275469786195256,-0.077467635,-3.359523,9.430413
800995968,3,1741275469796179214,-0.28205398,-3.2132616,9.216255
800995978,3,1741275469806163173,-0.421735,-3.0266216,9.306286
800995988,3,1741275469816147131,-0.6900302,-2.961118,9.58146
800995998,3,1741275469826131089,-0.8557332,-2.9315069,9.704989
800996008,3,1741275469836114892,-1.2520444,-2.7891338,9.678967
800996018,3,1741275469846098121,-1.6022938,-2.6650062,9.465707
800996028,3,1741275469856082079,-1.6968104,-2.6988049,9.366106
800996038,3,1741275469866066037,-1.4919249,-2.7035904,9.601201
800996048,3,1741275469876049996,-1.0459626,-2.6581268,9.565907
800996058,3,1741275469886033954,-0.4755735,-2.7260232,9.772587
800996068,3,1741275469896017600,-0.35174492,-2.8833513,9.900004
800996078,3,1741275469905999787,-0.49381876,-3.118147,9.914362
800996088,3,1741275469915852652,-0.6376872,-3.3565319,9.989436
800996098,3,1741275469926034058,-0.7148558,-3.1139596,9.795019
800996108,3,1741275469936145152,-0.17706887,-2.481357,9.835697
800996118,3,1741275469946185933,-0.016450657,-2.1197417,10.023235
800996128,3,1741275469956367339,-0.22671995,-2.370689,9.560224
800996138,3,1741275469966549058,-0.051146585,-2.4332016,9.375677
800996149,3,1741275469976731350,0.044865426,-2.085644,9.702597
800996159,3,1741275469986913642,0.17916259,-1.8684953,9.753445
800996169,3,1741275469997095933,0.10229317,-1.7617157,9.836894
800996179,3,1741275470007278225,-0.15732808,-1.9055841,10.255638
800996189,3,1741275470017459267,-0.39421752,-2.4266212,10.525129
800996199,3,1741275470027568954,-0.20757736,-2.786741,10.500005
800996209,3,1741275470037552339,0.1052842,-2.9004002,10.215259
800996219,3,1741275470047536298,0.10199407,-2.9452655,9.71157
800996229,3,1741275470057520256,-0.24765715,-2.6659036,9.409177
800996239,3,1741275470067504214,-0.72412795,-2.3291137,9.556335
800996249,3,1741275470077488173,-0.5401797,-2.286043,9.535099
800996259,3,1741275470087471506,-0.2641078,-2.0554347,9.806087
800996269,3,1741275470097406610,-0.3696911,-2.0321047,9.934701
800996279,3,1741275470107323277,-0.36430725,-1.9971097,10.3017
800996289,3,1741275470117492652,-0.3484548,-1.8311075,10.590633
800996300,3,1741275470127674058,-0.6562316,-2.2118654,10.577173
800996310,3,1741275470137761714,-0.33170503,-2.204388,10.520643
800996320,3,1741275470147814214,0.19591236,-1.7581264,10.4016
800996330,3,1741275470157901871,0.3595216,-1.5667006,9.819845
800996340,3,1741275470167954371,0.24466611,-1.3782659,8.880064
800996350,3,1741275470178135777,0.45792642,-1.2631112,8.35783
800996360,3,1741275470188317600,0.7052845,-1.1659029,8.530113
800996370,3,1741275470198435725,0.64636123,-1.2230315,8.871689
800996380,3,1741275470208452079,0.67058855,-1.3187444,9.196814
800996390,3,1741275470218435569,0.5907281,-1.4123635,9.413364
800996400,3,1741275470228419527,0.59282184,-1.4584254,9.725029
800996410,3,1741275470238403485,0.6828518,-1.494916,10.292129
800996420,3,1741275470248387444,0.5943173,-1.5942181,10.884352
800996430,3,1741275470258371402,0.9708878,-1.7500507,11.065608
800996440,3,1741275470268354944,1.0504491,-1.5436697,10.694122
800996450,3,1741275470278338433,0.42652065,-1.0085747,10.100104
800996460,3,1741275470288321558,0.10677971,-0.9026923,9.722038
800996470,3,1741275470298233121,-0.18574286,-0.9400802,9.515957
800996480,3,1741275470308203329,0.1905285,-1.3007982,9.862019
800996490,3,1741275470318384735,0.33439696,-1.2801601,10.322338
800996500,3,1741275470328566662,0.24735804,-0.86081797,10.372587
800996511,3,1741275470338631246,0.21206391,-0.5814559,10.651351
800996521,3,1741275470348707183,0.25962126,-0.3699902,11.017453
800996531,3,1741275470358888589,0.26261228,-0.37058842,10.959726
800996541,3,1741275470369070517,0.2335993,-0.43070808,10.702797
800996551,3,1741275470379252808,0.29940194,-0.2745764,10.294821
800996561,3,1741275470389328329,0.36909288,0.011066805,9.724133
800996571,3,1741275470399319214,0.31316066,0.39361933,9.226126
800996581,3,1741275470409302131,0.24436702,0.8105687,8.659027
800996591,3,1741275470419285985,0.42831525,1.1799606,8.184949
800996601,3,1741275470429270673,0.63230336,1.2924234,8.163414
800996611,3,1741275470439254110,0.90029955,1.1826526,8.566006
800996621,3,1741275470449237704,1.1976078,0.8557332,9.334999
800996631,3,1741275470459221662,1.5475581,0.392722,10.36152
800996641,3,1741275470469205621,1.66361,0.06550352,11.045269
800996651,3,1741275470479189579,1.6737795,-0.13100705,11.12184
800996661,3,1741275470489172496,1.3704891,-0.16271193,10.606485
800996671,3,1741275470499060517,1.122533,0.093918286,10.052547
800996681,3,1741275470509077600,0.9167502,0.40438703,9.559028
800996691,3,1741275470519259006,0.6762715,0.6406783,9.166006
800996701,3,1741275470529440985,0.5662017,0.8243274,8.926425
800996711,3,1741275470539493798,0.43579283,0.95054877,8.9210415
800996721,3,1741275470549569735,0.26171497,0.971486,9.16152
800996732,3,1741275470559638850,0.15493527,1.128515,9.546764
800996742,3,1741275470569631246,0.19980069,1.0956137,10.022338
800996752,3,1741275470579615204,0.3894319,0.8222337,10.400702
800996761,3,1741275470589598589,-0.07477571,1.015155,10.439287
800996771,3,1741275470599582235,-0.1794617,0.9415757,10.162916
800996781,3,1741275470609566194,-0.0038883367,0.65712893,10.000802
800996791,3,1741275470619550152,-0.024526432,0.7360921,10.119845
800996801,3,1741275470629532964,-0.008673982,0.9098708,10.385748
800996811,3,1741275470639517235,-0.07776674,1.166501,10.419546
800996821,3,1741275470649501819,-0.039780676,1.3618152,10.042377
800996831,3,1741275470659485777,0.2745764,1.3004991,9.270991
800996841,3,1741275470669469162,0.49471608,1.2553346,8.733205
800996851,3,1741275470679451662,0.6511469,1.4012967,8.571988
800996861,3,1741275470689435673,0.5901299,1.5230316,8.639884
800996871,3,1741275470699420569,0.23778675,1.7706888,8.672486
800996881,3,1741275470709404527,0.106480606,1.8113668,8.837891
800996891,3,1741275470719387339,0.49172506,1.9151554,9.121739
800996901,3,1741275470729310673,1.0163515,2.1637099,9.29492
800996911,3,1741275470739351767,1.5209379,2.0608184,9.336494
800996921,3,1741275470749533173,1.5699908,2.0889342,9.244969
800996932,3,1741275470759714579,1.0971092,2.274677,9.143274
800996942,3,1741275470769896871,0.68464637,2.443371,9.205189
800996952,3,1741275470780079162,0.40797627,2.548057,9.372387
800996962,3,1741275470790261454,0.6678966,2.5369902,9.609575
800996972,3,1741275470800443746,1.151845,2.6865416,9.4941225
800996983,3,1741275470810626037,1.445564,2.8396823,9.223135
800996993,3,1741275470820808329,1.7030915,2.8555348,9.257831
800997003,3,1741275470830990621,1.7611175,2.812464,9.498011
800997013,3,1741275470841172912,1.7321045,2.6865416,9.771989
800997023,3,1741275470851355204,1.43689,2.652145,9.898509
800997033,3,1741275470861537496,1.1312069,2.4293132,9.727721
800997044,3,1741275470871719787,1.0271192,2.3258235,9.593125
800997054,3,1741275470881701975,1.3139588,2.2510478,9.765707
800997064,3,1741275470891836506,1.4835501,2.3407788,10.190733
800997074,3,1741275470902017912,1.6857436,2.6075785,10.817353
800997084,3,1741275470912199319,2.0952153,2.865405,10.983056
800997094,3,1741275470922381610,2.4065814,3.1719856,10.549058
800997104,3,1741275470932563902,2.4951158,3.371188,9.996614
800997114,3,1741275470942546089,2.4586253,3.359523,9.618548
800997124,3,1741275470952539787,2.25703,3.2066815,9.734302
800997134,3,1741275470962523746,2.0527427,2.9219356,10.161719
800997144,3,1741275470972507704,2.0195422,2.8064818,10.59841
800997154,3,1741275470982490777,2.0760727,2.9742785,10.693824
800997164,3,1741275470992474735,2.0147567,3.1603205,10.287941
800997174,3,1741275471002458694,2.067997,3.2730823,9.456435
800997184,3,1741275471012442652,1.809273,3.4944184,8.825927
800997194,3,1741275471022426610,1.5565311,3.586841,8.607282
800997204,3,1741275471032410569,1.5020944,3.813262,8.841779
800997214,3,1741275471042394527,1.4132608,4.0812583,9.172287
800997224,3,1741275471052377600,1.2254243,4.1458645,9.573085
800997234,3,1741275471062361558,1.2963116,4.061816,10.075877
800997244,3,1741275471072343746,1.1306087,3.906582,10.124631
800997254,3,1741275471082161142,1.038186,3.9140596,9.710074
800997264,3,1741275471092330933,0.9954142,4.336692,9.143574
800997274,3,1741275471102313121,0.99690974,4.6462636,8.635996
800997284,3,1741275471112494527,1.0594223,4.683352,8.374879
800997295,3,1741275471122675360,1.2918252,4.6725845,8.538189
800997305,3,1741275471132835881,1.5762719,4.4485564,8.713164
800997315,3,1741275471142818069,1.8574286,4.417749,8.918349
800997325,3,1741275471152803485,2.1780667,4.4195433,8.6192465
800997335,3,1741275471162787444,2.1149561,4.569693,7.887641
800997345,3,1741275471172771350,1.8900307,4.928018,7.1413794
800997355,3,1741275471182754475,1.6429719,5.201099,6.7112694
800997365,3,1741275471192738433,1.4587245,5.265705,6.6798635
800997375,3,1741275471202722392,1.4712868,5.1421757,7.1246295
800997385,3,1741275471212706350,1.6073786,4.898706,7.8631144
800997395,3,1741275471222690308,1.6573287,4.623831,8.540283
800997405,3,1741275471232674267,1.6007984,4.766802,8.987143
800997415,3,1741275471242658173,1.5326029,4.9088755,9.288638
800997425,3,1741275471252641298,1.4315062,4.9716873,9.41157
800997435,3,1741275471262625256,1.3776677,4.988736,9.203394
800997444,3,1741275471272609110,1.1186446,5.0389853,8.5576315
800997454,3,1741275471282591298,1.2460624,5.369793,7.9163547
800997464,3,1741275471292576923,1.4219348,5.6671014,7.5062847
800997474,3,1741275471302560881,1.5756737,5.601,7.4590263
800997484,3,1741275471312544839,1.9974087,5.395516,7.6770725
800997494,3,1741275471322528746,1.9995024,5.323432,7.7760754
800997504,3,1741275471332511871,1.7270198,5.4442697,7.769196
800997514,3,1741275471342495829,1.4620147,5.701498,7.750951
800997524,3,1741275471352479787,1.2212368,5.963213,7.7312098
800997534,3,1741275471362463746,1.1551352,6.0634127,7.6534433
800997544,3,1741275471372447704,1.4231312,6.012266,7.629814
800997554,3,1741275471382431610,1.6091732,5.895616,7.751549
800997564,3,1741275471392414735,1.4670994,5.617749,7.969595
800997574,3,1741275471402398694,1.4171492,5.5190454,8.268698
800997584,3,1741275471412382652,1.556232,5.6991053,8.532506
800997594,3,1741275471422366610,1.3489537,5.866304,8.673384
800997604,3,1741275471432350569,1.2002996,5.925825,8.770891
800997614,3,1741275471442334527,1.3040884,5.9847484,8.96471
800997624,3,1741275471452318433,1.1862419,5.994021,8.883952
800997634,3,1741275471462301558,1.2634103,5.9204416,8.263613
800997644,3,1741275471472285517,1.3411771,6.0113688,7.470392
800997654,3,1741275471482269475,1.3336995,6.179764,6.8446693
800997664,3,1741275471492253433,1.3818551,6.416952,6.582057
800997674,3,1741275471502237392,1.544567,6.661917,6.4704914
800997684,3,1741275471512221298,1.4964114,6.8096743,6.472884
800997694,3,1741275471522204423,1.1910275,6.8895345,6.749255
800997704,3,1741275471532188381,0.8856435,6.6771717,7.036095
800997714,3,1741275471542172339,0.92482597,6.458228,7.2155566
800997724,3,1741275471552156298,0.77677006,6.3454666,7.2209406
800997734,3,1741275471562140256,0.83688974,6.263213,7.3627152
800997744,3,1741275471572124214,0.59700924,6.4360948,7.4045897
800997754,3,1741275471582108121,0.6113662,6.748956,7.359425
800997764,3,1741275471592091246,0.15403795,7.3779697,7.331609
800997774,3,1741275471602075204,-0.41814575,7.7853475,7.1303124
800997784,3,1741275471612059162,-0.50009996,7.598707,6.870392
800997794,3,1741275471622043121,-0.29072794,7.279565,6.393622
800997804,3,1741275471632027079,-0.016749758,7.2433734,5.9024954
800997814,3,1741275471642010985,-0.13878371,7.2708907,5.9838514
800997824,3,1741275471651994110,-0.07716853,7.265208,6.161219
800997834,3,1741275471661978069,0.3152544,7.306783,6.2715883
800997844,3,1741275471671962027,0.4956134,7.2840514,6.389435
800997854,3,1741275471681945985,0.58564335,7.136893,6.570691
800997864,3,1741275471691929944,0.24107689,7.334899,6.6759753
800997874,3,1741275471701913902,-0.119042926,7.724929,6.819844
800997884,3,1741275471711897808,-0.4336991,7.9337025,6.9065833
800997894,3,1741275471721880933,-0.3062813,7.780562,7.123732
800997904,3,1741275471731864892,0.21535404,7.383353,7.3776703
800997914,3,1741275471741848850,0.50159544,7.364809,7.4566336
800997924,3,1741275471751832808,0.8955139,7.452147,7.4291162
800997934,3,1741275471761816767,0.7513463,7.9259257,7.1078796
800997944,3,1741275471771800725,0.4223332,8.546564,6.7618175
800997954,3,1741275471781784631,0.56470615,8.515159,6.267102
800997964,3,1741275471791767756,0.61914283,8.459227,5.921937
800997974,3,1741275471801751714,0.5162515,8.468498,5.7317076
800997984,3,1741275471811735673,0.5389833,8.030014,5.805885
800997994,3,1741275471821719631,0.60807604,7.884351,6.084948
800998004,3,1741275471831703589,0.41605204,7.986943,6.3717875
800998014,3,1741275471841687548,0.4860421,7.885547,6.6017976
800998024,3,1741275471851671454,0.59581286,7.8646097,6.626922
800998034,3,1741275471861654579,0.81655073,7.972885,6.424729
800998044,3,1741275471871638537,0.8632108,8.065906,5.8064833
800998054,3,1741275471881622496,0.98973125,8.2011,5.218447
800998063,3,1741275471891606454,0.86111706,8.623733,4.5918264
800998073,3,1741275471901590412,0.619442,8.885747,4.024728
800998083,3,1741275471911574319,0.5901299,8.774181,3.7331023
800998093,3,1741275471921557444,0.7390831,8.561818,3.6526437
800998103,3,1741275471931541402,0.70977104,8.549854,3.7686956
800998113,3,1741275471941525360,0.779462,8.668299,3.95055
800998123,3,1741275471951509319,0.7492526,8.92134,4.26072
800998133,3,1741275471961493277,0.7510472,9.046664,4.2759743
800998143,3,1741275471971477235,0.9490533,9.180662,3.7253258
800998153,3,1741275471981461142,1.0992029,9.615258,3.2449665
800998163,3,1741275471991444267,1.1718849,9.720243,2.7741787
800998173,3,1741275472001428225,0.9023932,9.457631,2.5519454
800998183,3,1741275472011412183,0.8431709,9.012267,2.4675984
800998193,3,1741275472021396142,0.67088765,8.88814,2.722434
800998203,3,1741275472031380100,0.42681974,9.073284,3.2566316
800998213,3,1741275472041364058,0.4444668,9.302397,4.0797625
800998223,3,1741275472051347964,0.5919245,9.409775,4.855635
800998233,3,1741275472061331089,0.72083783,9.346365,5.0569315
800998243,3,1741275472071315048,0.8315059,9.006884,4.5475593
800998253,3,1741275472081299006,0.8877372,8.897412,3.650849
800998263,3,1741275472091282964,0.8467601,8.929416,2.7580273
800998273,3,1741275472101266923,0.64247286,9.183653,2.0321047
800998283,3,1741275472111250881,0.6547361,9.432208,1.6651055
800998293,3,1741275472121234787,0.5632106,9.699904,1.5849459
800998303,3,1741275472131217912,0.34097722,9.824631,1.8337995
800998313,3,1741275472141201871,0.20249261,10.01486,2.34706
800998323,3,1741275472151185829,0.1576272,10.030114,2.8435707
800998333,3,1741275472161169787,0.30358937,9.855438,3.5063825
800998343,3,1741275472171153746,0.42203408,9.627821,3.7235312
800998353,3,1741275472181137704,0.6658029,9.395418,3.115156
800998363,3,1741275472191121610,0.6999006,9.394221,2.1589243
800998373,3,1741275472201104735,0.5775676,9.539287,1.0890334
800998383,3,1741275472211088694,0.46630132,9.637392,0.40378883
800998393,3,1741275472221072652,0.3681956,9.73819,0.23629123
800998403,3,1741275472231056610,0.3188436,9.77139,0.66999036
800998413,3,1741275472241040569,0.16181463,9.806385,1.274178
800998423,3,1741275472251024527,0.18783657,9.740284,1.8370895
800998433,3,1741275472261008433,0.29222345,9.69482,2.292324
800998443,3,1741275472270991558,0.37088752,9.732208,2.678765
800998453,3,1741275472280975517,0.44805604,9.736395,3.0284162
800998463,3,1741275472290959475,0.57607204,9.650553,3.3140593
800998473,3,1741275472300943433,0.67806613,9.729516,3.499802
800998483,3,1741275472310927287,0.80847496,9.734002,3.3870404
800998493,3,1741275472320909475,0.84017986,9.681958,3.0287154
800998503,3,1741275472330895100,0.8599206,9.782457,2.676372
800998513,3,1741275472340879058,0.8276175,9.916755,2.4281168
800998523,3,1741275472350862964,0.70319074,9.967302,2.3291137
800998533,3,1741275472360846089,0.63948184,9.974482,2.3892334
800998543,3,1741275472370830048,0.41365921,10.133604,2.3626132
800998553,3,1741275472380814006,0.53629136,9.987043,2.1681964
800998563,3,1741275472390797964,0.54376894,9.940682,1.7614166
800998573,3,1741275472400781923,0.4564309,10.0372925,1.3049856
800998583,3,1741275472410765881,0.4232305,10.01516,0.8650054
800998593,3,1741275472420749839,0.4232305,9.833903,0.5180461
800998603,3,1741275472430733746,0.51505506,9.802198,0.5407779
800998613,3,1741275472440716871,0.57457656,10.12164,0.8682955
800998623,3,1741275472450700829,0.60777694,10.588539,1.3160524
800998633,3,1741275472460684787,0.72382885,10.769795,1.5837495
800998643,3,1741275472470668746,0.6643074,10.563115,1.7240287
800998653,3,1741275472480652704,0.65324056,10.087543,1.5568303
800998663,3,1741275472490636662,0.6260222,9.744172,1.1820544
800998673,3,1741275472500620569,0.5210371,9.552148,0.6723832
800998682,3,1741275472510603694,0.37477586,9.719346,0.023629123
800998692,3,1741275472520587652,0.45583272,10.049556,-0.5587241
800998702,3,1741275472530571610,0.558425,10.282856,-0.8422736
800998712,3,1741275472540555569,0.7322037,10.147363,-0.86530447
800998722,3,1741275472550539527,0.96490574,9.999606,-0.5629115
800998732,3,1741275472560523485,0.96430755,9.898509,-0.13579269
800998742,3,1741275472570507392,0.9723833,9.74836,0.22701904
800998752,3,1741275472580490517,0.91166544,9.569496,0.34277186
800998762,3,1741275472590474475,0.90119684,9.425328,0.2114657
800998772,3,1741275472600458433,0.9098708,9.338589,-0.21954148
800998782,3,1741275472610442392,0.70319074,9.465707,-0.60717875
800998792,3,1741275472620426350,0.57547385,9.702896,-0.6233303
800998802,3,1741275472630410308,0.5458627,9.8428755,-0.49920264
800998812,3,1741275472640394267,0.56141603,9.861121,-0.22462623
800998822,3,1741275472650378173,0.64995044,9.809077,0.05742774
800998832,3,1741275472660361298,0.75463647,9.768997,0.26979074
800998842,3,1741275472670345256,0.8135597,9.647861,0.3924229
800998852,3,1741275472680329214,0.68494546,9.587143,0.37088752
800998862,3,1741275472690313173,0.5886344,9.567701,0.2117648
800998872,3,1741275472700297131,0.6122635,9.702297,-0.07298109
800998882,3,1741275472710281089,0.35832518,9.702896,-0.36670008
800998892,3,1741275472720264996,-0.030807592,9.310772,-1.3019946
800998902,3,1741275472730248121,1.3890336,10.977672,-0.8386843
800998912,3,1741275472740232079,0.6430711,10.457831,0.052342996
800998922,3,1741275472750216037,0.1698904,9.446565,0.5063811
800998932,3,1741275472760199996,0.32273194,9.527323,0.37268212
800998942,3,1741275472770183954,0.5395815,9.598509,0.22642085
800998952,3,1741275472780167912,0.8428718,10.169497,0.38494533
800998962,3,1741275472790151871,0.5521438,10.20479,0.5709873
800998972,3,1741275472800135777,0.4031906,9.870692,0.5189434
800998982,3,1741275472810118798,0.15493527,9.7298155,0.09092726
800998992,3,1741275472820100985,0.70289165,10.046266,-0.30239296
800999002,3,1741275472830086610,1.0423734,10.872088,0.12861422
800999012,3,1741275472840070569,0.3687938,9.940084,0.62811595
800999022,3,1741275472850054527,0.23958136,9.549157,0.9822537
800999032,3,1741275472860038485,0.51445687,9.61466,0.98913306
800999042,3,1741275472870022444,0.73130643,9.602098,0.8605189
800999052,3,1741275472880006402,0.5518447,9.753145,0.8321041
800999062,3,1741275472889990360,0.40648076,9.792028,0.6329016
800999072,3,1741275472899974267,0.31226337,9.993624,0.31076783
800999082,3,1741275472909957392,0.2730809,10.126126,-0.0020937198
800999092,3,1741275472919941350,0.3152544,10.098011,-0.27846473
800999102,3,1741275472929925308,0.43040898,10.1016,-0.421735
800999112,3,1741275472939909267,0.70319074,9.794122,-0.3822534
800999122,3,1741275472949893225,0.85872424,9.667602,-0.3801597
800999132,3,1741275472959877183,1.4853446,10.290034,-0.16331014
800999142,3,1741275472969861142,1.2320045,10.433604,0.07926225
800999152,3,1741275472979845048,0.7316055,10.151251,0.24227329
800999162,3,1741275472989828173,0.56769717,10.14168,0.25064817
800999172,3,1741275472999812131,0.49651068,10.083653,0.29820552
800999182,3,1741275473009795985,0.4322036,9.956834,0.42951167
800999192,3,1741275473019778173,0.50458646,9.796814,0.47138608
800999202,3,1741275473029764006,0.61884373,9.822836,0.4109673
800999212,3,1741275473039746194,0.61435723,9.945169,0.25842485
800999222,3,1741275473049731819,0.4447659,9.894023,0.07088737
800999232,3,1741275473059715777,0.4758726,9.817153,-0.10199407
800999242,3,1741275473069699683,0.8168498,10.37139,-0.030807592
800999252,3,1741275473079682808,0.4459623,10.242777,0.26291138
800999262,3,1741275473089666767,0.17587246,9.768699,0.5204389
800999272,3,1741275473099650725,0.32153556,9.70469,0.5772685
800999282,3,1741275473109634683,0.5512465,9.773484,0.6625128
800999292,3,1741275473119618642,0.59730834,9.940982,0.77796644
800999301,3,1741275473129602600,0.9418748,10.472188,0.9702896
800999311,3,1741275473139586558,0.76749784,10.576575,1.1084751
800999321,3,1741275473149570464,0.32542387,10.283753,1.0968101
800999331,3,1741275473159553589,0.07716853,10.177572,1.0214362
800999341,3,1741275473169537548,-0.093918286,10.056436,0.9499506
800999351,3,1741275473179521506,-0.17647067,9.888938,1.0145568
800999361,3,1741275473189505464,-0.21206391,9.840483,1.2284154
800999371,3,1741275473199489423,-0.212363,9.849157,1.5610176
800999381,3,1741275473209473381,-0.276371,9.880563,1.8951155
800999391,3,1741275473219457339,-0.13968103,9.92154,2.0620148
800999401,3,1741275473229441246,0.14596218,9.926624,1.9674984
800999411,3,1741275473239424371,0.26799613,9.882358,1.7383857
800999421,3,1741275473249408329,0.40857446,9.770194,1.527219
800999431,3,1741275473259392287,0.61884373,9.682557,1.3588241
800999441,3,1741275473269376246,0.811466,9.693624,1.2669996
800999451,3,1741275473279360204,0.9553344,9.759426,1.1581261
800999461,3,1741275473289344162,0.91196454,9.773185,1.1859428
800999471,3,1741275473299328121,0.75344,9.890733,1.1282159
800999481,3,1741275473309312027,0.6430711,9.91167,1.0076774
800999491,3,1741275473319295152,0.68135625,9.935597,0.8865408
800999501,3,1741275473329279110,0.7902297,9.980165,0.76540416
800999511,3,1741275473339263069,0.8811569,10.062417,0.66341007
800999521,3,1741275473349247027,0.84137625,10.227223,0.6409774
800999531,3,1741275473359230985,0.89312106,10.367802,0.7259226
800999541,3,1741275473369214944,0.9098708,10.360922,0.8132606
800999551,3,1741275473379198902,0.8365906,10.152448,0.75523466
800999561,3,1741275473389182860,0.68524456,10.006784,0.7612167
800999571,3,1741275473399166767,0.5063811,9.996316,0.6367899
800999581,3,1741275473409149892,0.20249261,10.039685,0.5198407
800999591,3,1741275473419133850,0.0017946169,10.027721,0.48454657
800999601,3,1741275473429117808,-0.16630118,9.962218,0.5925227
800999611,3,1741275473439101767,-0.3185445,9.925728,0.8602197
800999621,3,1741275473449085725,-0.3702893,10.037891,1.023829
800999631,3,1741275473459069683,-0.47916272,10.083653,1.1291132
800999641,3,1741275473469053642,-0.27098715,10.070792,1.0420742
800999651,3,1741275473479037600,0.12263216,10.079765,0.8006983
800999661,3,1741275473489021506,0.26919255,10.075578,0.60807604
800999671,3,1741275473499004631,-0.2638087,9.581759,0.42981076
800999681,3,1741275473508988589,-0.039780676,9.748658,0.27188447
800999691,3,1741275473518972548,-0.0840479,9.932009,0.23539393
800999701,3,1741275473528956506,-0.5937191,9.714262,0.45224348
800999711,3,1741275473538940464,-0.49082774,9.84138,0.811466
800999721,3,1741275473548924423,-0.46899325,9.944571,1.195514
800999731,3,1741275473558908381,-0.39810586,9.911072,1.3818551
800999741,3,1741275473568892287,-0.06909275,10.072886,1.5936198
800999751,3,1741275473578875412,0.06699903,10.158429,1.8418752
800999761,3,1741275473588859371,0.1274178,10.056436,2.1463618
800999771,3,1741275473598843329,0.07298109,9.801899,2.3189442
800999781,3,1741275473608827287,-0.050847482,9.603294,2.175674
800999791,3,1741275473618811246,-0.2943172,9.487542,1.730908
800999801,3,1741275473628795204,-0.28594232,9.333803,1.0893325
800999811,3,1741275473638779162,-0.102592275,9.520742,0.60687965
800999821,3,1741275473648763121,0.16331014,9.71157,0.6227321
800999831,3,1741275473658747027,0.38703907,9.895518,1.1324034
800999841,3,1741275473668730152,0.49082774,10.030114,1.8182461
800999851,3,1741275473678714110,0.40857446,10.0681,2.289632
800999861,3,1741275473688698069,0.23479572,10.157831,2.5007987
800999871,3,1741275473698682027,0.253041,10.044471,2.5953152
800999881,3,1741275473708665985,0.119042926,9.909277,2.5414767
800999891,3,1741275473718649944,0.023330022,9.796515,2.3291137
800999901,3,1741275473728633902,0.15702899,9.764511,2.0434706
800999911,3,1741275473738617860,0.18544376,9.794721,1.8248264
800999920,3,1741275473748601767,0.3182454,9.914362,1.7291135
800999930,3,1741275473758584892,0.54466623,10.082756,1.6100706
800999940,3,1741275473768568850,0.7426723,10.187741,1.4653047
800999950,3,1741275473778552808,0.82672024,10.217053,1.3507484
800999960,3,1741275473788536767,0.5392824,10.0014,1.0130613
800999970,3,1741275473798520725,-0.08793623,10.200005,0.5775676
800999980,3,1741275473808504579,0.25842485,9.809675,0.7582257
800999990,3,1741275473818486767,0.35294133,9.630812,1.0148559
801000000,3,1741275473828472756,0.20309082,9.817751,0.9457632
801000010,3,1741275473838455881,0.4232305,9.794721,0.91525465
801000020,3,1741275473848439839,0.7055836,9.923933,0.9882358
801000030,3,1741275473858423798,0.8422736,10.105787,1.3331013
801000040,3,1741275473868407756,0.7686943,10.226027,1.8637097
801000050,3,1741275473878391714,0.7537391,10.254441,2.3150558
801000060,3,1741275473888375673,0.80847496,10.146765,2.4789643
801000070,3,1741275473898359631,0.81266236,9.857532,2.4412773
801000080,3,1741275473908343589,0.77377903,9.740284,2.195714
801000090,3,1741275473918327496,0.81984085,9.559626,1.7303098
