acc_s001_004 Accelerometer Non-wakeup,STMicro,2025-03-06_18-41-53.764_TGW
imuTimestamp,accuracy(more=better),utcTimestamp(nanos),acc_x[m/s^2],acc_y[m/s^2],acc_z[m/s^2]
801243123,3,1741275716951115895,0.10707881,-9.77468,0.14356937
801243134,3,1741275716961334280,0.111864455,-9.77498,0.1477568
801243144,3,1741275716971564333,0.09421739,-9.759726,0.14446667
801243154,3,1741275716981782510,0.093918286,-9.780962,0.14207384
801243164,3,1741275716991823343,0.096909314,-9.7609215,0.1369891
801243174,3,1741275717001853343,0.10917253,-9.768399,0.13160525
801243184,3,1741275717011883343,0.09720842,-9.775279,0.11874382
801243194,3,1741275717021863551,0.10857433,-9.772886,0.1363909
801243204,3,1741275717031959228,0.10737792,-9.766604,0.14985052
801243214,3,1741275717042020530,0.102592275,-9.769596,0.1480559
801243224,3,1741275717052003239,0.09272188,-9.766006,0.15104693
801243234,3,1741275717061986833,0.09840483,-9.755538,0.14416756
801243244,3,1741275717071971312,0.10289137,-9.761221,0.14416756
801243254,3,1741275717081955635,0.10707881,-9.76152,0.14327025
801243264,3,1741275717091939593,0.10229317,-9.763314,0.15284155
801243274,3,1741275717101923551,0.102592275,-9.765707,0.15074782
801243284,3,1741275717111906989,0.11335997,-9.768699,0.15463616
801243294,3,1741275717121891468,0.11306087,-9.750752,0.15074782
801243304,3,1741275717131876155,0.10677971,-9.772886,0.15613168
801243314,3,1741275717141860635,0.10199407,-9.773484,0.14566308
801243324,3,1741275717151844958,0.10109676,-9.768399,0.148355
801243334,3,1741275717161828916,0.10079765,-9.7681,0.15284155
801243344,3,1741275717171813395,0.104087785,-9.766604,0.16719848
801243354,3,1741275717181797718,0.0951147,-9.770792,0.15493527
801243364,3,1741275717191781676,0.09272188,-9.767801,0.14237295
801243374,3,1741275717201765635,0.10199407,-9.772886,0.15553348
801243384,3,1741275717211749072,0.10677971,-9.77468,0.15493527
801243394,3,1741275717221732145,0.10199407,-9.766604,0.15074782
801243404,3,1741275717231797353,0.10378868,-9.769596,0.15613168
801243414,3,1741275717241979645,0.10199407,-9.762417,0.1477568
801243424,3,1741275717252162510,0.091525465,-9.7704935,0.15553348
801243434,3,1741275717262243708,0.10079765,-9.766604,0.14955142
801243444,3,1741275717272242926,0.093918286,-9.757931,0.16091733
801243454,3,1741275717282227197,0.1061815,-9.749556,0.15583257
801243464,3,1741275717292211155,0.10468599,-9.769895,0.14446667
801243474,3,1741275717302195114,0.10079765,-9.762417,0.16630118
801243484,3,1741275717312178499,0.09272188,-9.763913,0.1471586
801243494,3,1741275717322161572,0.11395818,-9.757631,0.16271193
801243504,3,1741275717332144749,0.10049855,-9.75823,0.16061822
801243514,3,1741275717342245114,0.10977074,-9.77139,0.15343975
801243525,3,1741275717352427405,0.11425728,-9.76152,0.16031912
801243535,3,1741275717362610374,0.1058824,-9.77139,0.1591227
801243545,3,1741275717372793551,0.09720842,-9.755538,0.15583257
801243555,3,1741275717382976728,0.09571291,-9.766604,0.15433706
801243565,3,1741275717393159905,0.09601201,-9.769297,0.15523437
801243575,3,1741275717403206989,0.10348958,-9.766306,0.1576272
801243585,3,1741275717413196624,0.112761766,-9.7609215,0.16360925
801243595,3,1741275717423180791,0.09960124,-9.763614,0.16600206
801243605,3,1741275717433164749,0.10707881,-9.762417,0.15792629
801243615,3,1741275717443149385,0.1055833,-9.772587,0.16061822
801243625,3,1741275717453133551,0.10229317,-9.775279,0.15164514
801243635,3,1741275717463117510,0.10199407,-9.770194,0.15732808
801243645,3,1741275717473101468,0.10348958,-9.766306,0.15493527
801243655,3,1741275717483086103,0.10229317,-9.767502,0.1582254
801243665,3,1741275717493070270,0.09661021,-9.763614,0.15194423
801243675,3,1741275717503054228,0.0951147,-9.756136,0.16360925
801243685,3,1741275717513038864,0.10289137,-9.759128,0.16959131
801243695,3,1741275717523023030,0.100199446,-9.767203,0.16510476
801243705,3,1741275717533006989,0.11964113,-9.765707,0.16241284
801243715,3,1741275717542990947,0.10378868,-9.764511,0.17198412
801243725,3,1741275717552975583,0.111266255,-9.772287,0.15672988
801243735,3,1741275717562959749,0.11694921,-9.768699,0.16630118
801243745,3,1741275717572943708,0.10707881,-9.760024,0.1585245
801243755,3,1741275717582928343,0.111864455,-9.756435,0.15463616
801243765,3,1741275717592912510,0.10468599,-9.757033,0.15882361
801243775,3,1741275717602896468,0.104985096,-9.761819,0.17048861
801243785,3,1741275717612881103,0.09451649,-9.768699,0.17288144
801243795,3,1741275717622865270,0.10199407,-9.762118,0.17587246
801243805,3,1741275717632849228,0.111864455,-9.763913,0.16061822
801243815,3,1741275717642833187,0.111266255,-9.772287,0.15702899
801243825,3,1741275717652817822,0.10229317,-9.756435,0.1692922
801243835,3,1741275717662801989,0.09930214,-9.766604,0.15972091
801243845,3,1741275717672785947,0.103190474,-9.771091,0.17497516
801243855,3,1741275717682770583,0.10857433,-9.764511,0.17437695
801243865,3,1741275717692754749,0.09571291,-9.770792,0.16271193
801243875,3,1741275717702738708,0.09720842,-9.770792,0.17198412
801243885,3,1741275717712723343,0.10229317,-9.769297,0.15613168
801243895,3,1741275717722707510,0.106480606,-9.756435,0.16031912
801243905,3,1741275717732691468,0.10079765,-9.755239,0.1680958
801243915,3,1741275717742674749,0.09840483,-9.771689,0.1594218
801243925,3,1741275717752659697,0.0951147,-9.766604,0.15613168
801243935,3,1741275717762644072,0.09990034,-9.77139,0.16301104
801243945,3,1741275717772628030,0.10707881,-9.774382,0.13998012
801243955,3,1741275717782612666,0.10289137,-9.753445,0.15493527
801243965,3,1741275717792596833,0.10857433,-9.772886,0.16331014
801243975,3,1741275717802580791,0.112761766,-9.762417,0.16390835
801243985,3,1741275717812565426,0.10767702,-9.764811,0.17168503
801243995,3,1741275717822548916,0.10977074,-9.775877,0.1683949
801244005,3,1741275717832533239,0.1058824,-9.765707,0.15672988
801244015,3,1741275717842518083,0.10378868,-9.7609215,0.16390835
801244025,3,1741275717852502249,0.10797612,-9.758828,0.17108682
801244035,3,1741275717862486208,0.10049855,-9.765109,0.1585245
801244045,3,1741275717872470843,0.10079765,-9.764511,0.17288144
801244055,3,1741275717882455010,0.11156536,-9.7654085,0.16779669
801244065,3,1741275717892438968,0.11874382,-9.768997,0.16540386
801244075,3,1741275717902422926,0.101694964,-9.755239,0.16390835
801244085,3,1741275717912407562,0.09750752,-9.784551,0.16331014
801244095,3,1741275717922391728,0.1061815,-9.764511,0.16630118
801244105,3,1741275717932375687,0.1055833,-9.757033,0.17437695
801244115,3,1741275717942360322,0.11335997,-9.760324,0.16779669
801244125,3,1741275717952344489,0.106480606,-9.766306,0.16869399
801244134,3,1741275717962328447,0.1058824,-9.759726,0.1594218
801244144,3,1741275717972313083,0.092422776,-9.7681,0.17258233
801244154,3,1741275717982297249,0.097806625,-9.766006,0.1689931
801244164,3,1741275717992281208,0.09900304,-9.766604,0.16031912
801244174,3,1741275718002265166,0.10139586,-9.771689,0.15732808
801244184,3,1741275718012249801,0.11216356,-9.760623,0.16450655
801244194,3,1741275718022233968,0.10348958,-9.78485,0.16480567
801244204,3,1741275718032217926,0.11156536,-9.768399,0.15792629
801244214,3,1741275718042202562,0.10199407,-9.753445,0.1582254
801244224,3,1741275718052186728,0.1061815,-9.774382,0.16480567
801244234,3,1741275718062170687,0.09661021,-9.771989,0.15433706
801244244,3,1741275718072155322,0.10707881,-9.758529,0.16241284
801244254,3,1741275718082139489,0.10079765,-9.763314,0.16390835
801244264,3,1741275718092123447,0.103190474,-9.763913,0.16301104
801244274,3,1741275718102107405,0.10049855,-9.767502,0.16061822
801244284,3,1741275718112092041,0.119042926,-9.7609215,0.16241284
801244294,3,1741275718122076208,0.10229317,-9.769895,0.16031912
801244304,3,1741275718132060166,0.10917253,-9.779765,0.17108682
801244314,3,1741275718142044801,0.104985096,-9.762716,0.16749759
801244324,3,1741275718152028968,0.10887343,-9.766306,0.15613168
801244334,3,1741275718162012926,0.10797612,-9.770792,0.16420746
801244344,3,1741275718171997562,0.1061815,-9.766306,0.16121642
801244354,3,1741275718181981728,0.104985096,-9.77139,0.16570297
801244364,3,1741275718191965687,0.10737792,-9.763314,0.16600206
801244374,3,1741275718201950322,0.102592275,-9.760623,0.16510476
801244384,3,1741275718211934489,0.11425728,-9.767502,0.16600206
801244394,3,1741275718221917770,0.116650105,-9.763314,0.1680958
801244404,3,1741275718231902718,0.11246266,-9.776475,0.15463616
801244414,3,1741275718241887093,0.10289137,-9.7704935,0.14476576
801244424,3,1741275718251871051,0.09661021,-9.768699,0.1689931
801244434,3,1741275718261855010,0.110368945,-9.753743,0.16480567
801244444,3,1741275718271839645,0.10797612,-9.779466,0.16121642
801244454,3,1741275718281823812,0.1052842,-9.755837,0.17078772
801244464,3,1741275718291807770,0.096311115,-9.761221,0.16540386
801244474,3,1741275718301792405,0.106480606,-9.767801,0.16390835
801244484,3,1741275718311776572,0.10767702,-9.770194,0.16480567
801244494,3,1741275718321760530,0.1052842,-9.772886,0.17407785
801244504,3,1741275718331745166,0.10468599,-9.770194,0.16630118
801244514,3,1741275718341729333,0.10917253,-9.767203,0.1683949
801244524,3,1741275718351713291,0.0948156,-9.772287,0.16151553
801244534,3,1741275718361697926,0.11395818,-9.763016,0.17048861
801244544,3,1741275718371682093,0.104985096,-9.768399,0.17647067
801244554,3,1741275718381666051,0.109471634,-9.773185,0.15493527
801244564,3,1741275718391650010,0.11156536,-9.759128,0.17138593
801244574,3,1741275718401634645,0.10229317,-9.7609215,0.1585245
801244584,3,1741275718411618812,0.10438689,-9.770194,0.16091733
801244594,3,1741275718421602770,0.11216356,-9.768699,0.16570297
801244604,3,1741275718431587405,0.11306087,-9.765109,0.1680958
801244614,3,1741275718441571572,0.09900304,-9.76152,0.16480567
801244624,3,1741275718451555530,0.10348958,-9.763913,0.1576272
801244634,3,1741275718461540166,0.09810573,-9.75823,0.16211374
801244644,3,1741275718471524333,0.10229317,-9.778569,0.15732808
801244654,3,1741275718481508291,0.097806625,-9.747462,0.1689931
801244664,3,1741275718491492249,0.10229317,-9.765109,0.15672988
801244674,3,1741275718501476885,0.09302098,-9.766604,0.15523437
801244684,3,1741275718511461051,0.104985096,-9.768399,0.16211374
801244694,3,1741275718521444333,0.110368945,-9.767502,0.16719848
801244704,3,1741275718531429124,0.111266255,-9.7681,0.16959131
801244714,3,1741275718541413499,0.1052842,-9.763913,0.16002001
801244724,3,1741275718551398135,0.10229317,-9.763314,0.16959131
801244734,3,1741275718561382301,0.10289137,-9.7704935,0.16061822
801244744,3,1741275718571366260,0.09990034,-9.768399,0.16689938
801244754,3,1741275718581350895,0.10109676,-9.777672,0.16211374
801244764,3,1741275718591335062,0.11335997,-9.763314,0.15882361
801244773,3,1741275718601319020,0.10199407,-9.767203,0.16869399
801244783,3,1741275718611302978,0.10707881,-9.757033,0.15882361
801244793,3,1741275718621287614,0.111864455,-9.7704935,0.16510476
801244803,3,1741275718631271780,0.11156536,-9.756435,0.16630118
801244813,3,1741275718641255739,0.10977074,-9.768699,0.15284155
801244823,3,1741275718651240374,0.10199407,-9.761819,0.16301104
801244833,3,1741275718661224541,0.103190474,-9.775279,0.16151553
801244843,3,1741275718671208499,0.10767702,-9.765109,0.16510476
801244853,3,1741275718681193135,0.10827523,-9.755538,0.16211374
801244863,3,1741275718691177301,0.09720842,-9.7654085,0.15284155
801244873,3,1741275718701161260,0.11096715,-9.767801,0.15314065
801244883,3,1741275718711145895,0.100199446,-9.763314,0.16211374
801244893,3,1741275718721130062,0.10468599,-9.763913,0.16450655
801244903,3,1741275718731114020,0.10229317,-9.771989,0.16211374
801244913,3,1741275718741097978,0.09840483,-9.776176,0.1585245
801244923,3,1741275718751082614,0.11216356,-9.767502,0.16779669
801244933,3,1741275718761066780,0.11306087,-9.762118,0.17318054
801244943,3,1741275718771050739,0.11096715,-9.78485,0.16271193
801244953,3,1741275718781035374,0.115752794,-9.770792,0.15493527
801244963,3,1741275718791019541,0.11335997,-9.761819,0.15643078
801244973,3,1741275718801003499,0.102592275,-9.762118,0.16540386
801244983,3,1741275718810988135,0.09930214,-9.764212,0.16301104
801244993,3,1741275718820971624,0.09661021,-9.762118,0.16002001
801245003,3,1741275718830956260,0.115752794,-9.760024,0.15672988
801245013,3,1741275718840940635,0.10917253,-9.768399,0.1692922
801245023,3,1741275718850924593,0.1055833,-9.7609215,0.15643078
801245033,3,1741275718860909228,0.10289137,-9.766306,0.15254244
801245043,3,1741275718870893395,0.1061815,-9.763016,0.1591227
801245053,3,1741275718880876676,0.1055833,-9.760324,0.15284155
801245063,3,1741275718890861624,0.10468599,-9.758529,0.16390835
801245073,3,1741275718900845999,0.096311115,-9.766604,0.16420746
801245083,3,1741275718910829958,0.10468599,-9.769895,0.16331014
801245093,3,1741275718920813239,0.13070793,-9.769596,0.15672988
801245103,3,1741275718930798603,0.104087785,-9.750752,0.16360925
801245113,3,1741275718940783187,0.097806625,-9.7609215,0.15284155
801245123,3,1741275718950767145,0.10677971,-9.773185,0.16450655
801245133,3,1741275718960751103,0.10827523,-9.753743,0.16420746
801245143,3,1741275718970735739,0.09840483,-9.77797,0.16420746
801245153,3,1741275718980719905,0.10797612,-9.755239,0.15314065
801245163,3,1741275718990703864,0.10348958,-9.760623,0.15104693
801245173,3,1741275719000688499,0.1061815,-9.766006,0.16241284
801245183,3,1741275719010672666,0.109471634,-9.766006,0.16570297
801245193,3,1741275719020655947,0.101694964,-9.765707,0.15643078
801245203,3,1741275719030640895,0.11335997,-9.765109,0.16181463
801245213,3,1741275719040625270,0.10289137,-9.772886,0.16450655
801245223,3,1741275719050609228,0.09840483,-9.767801,0.16749759
801245233,3,1741275719060593864,0.09571291,-9.764212,0.1594218
801245243,3,1741275719070578030,0.10707881,-9.767203,0.15553348
801245253,3,1741275719080561312,0.11485548,-9.764511,0.16420746
801245263,3,1741275719090546260,0.10229317,-9.770194,0.1585245
801245273,3,1741275719100530635,0.119940236,-9.768399,0.15433706
801245283,3,1741275719110514593,0.10677971,-9.7704935,0.1471586
801245293,3,1741275719120497874,0.10767702,-9.7609215,0.16002001
801245303,3,1741275719130483030,0.103190474,-9.773783,0.16869399
801245313,3,1741275719140467614,0.11395818,-9.768399,0.15613168
801245323,3,1741275719150451572,0.11395818,-9.765109,0.16600206
801245333,3,1741275719160436208,0.11934203,-9.7681,0.16061822
801245343,3,1741275719170420374,0.10378868,-9.764811,0.15792629
801245353,3,1741275719180404333,0.11246266,-9.766904,0.16061822
801245363,3,1741275719190388968,0.106480606,-9.773185,0.14566308
801245373,3,1741275719200373135,0.10139586,-9.765707,0.16510476
801245383,3,1741275719210357093,0.111864455,-9.768699,0.16181463
801245393,3,1741275719220340374,0.10767702,-9.7609215,0.15014961
801245402,3,1741275719230325322,0.096311115,-9.779466,0.16031912
801245412,3,1741275719240309697,0.10079765,-9.763614,0.16061822
801245422,3,1741275719250294333,0.1061815,-9.777672,0.16331014
801245432,3,1741275719260278499,0.11335997,-9.7654085,0.16061822
801245442,3,1741275719270262458,0.11964113,-9.765109,0.15613168
801245452,3,1741275719280247093,0.1058824,-9.771091,0.15882361
801245462,3,1741275719290231260,0.101694964,-9.772886,0.16031912
801245472,3,1741275719300215218,0.103190474,-9.766904,0.1471586
801245482,3,1741275719310199853,0.12173485,-9.763016,0.15972091
801245492,3,1741275719320184020,0.09750752,-9.777073,0.15433706
801245502,3,1741275719330167978,0.09571291,-9.780663,0.16869399
801245512,3,1741275719340152614,0.109471634,-9.761221,0.15523437
801245522,3,1741275719350136780,0.110368945,-9.773783,0.15403795
801245532,3,1741275719360120739,0.10049855,-9.759726,0.14596218
801245542,3,1741275719370105374,0.10707881,-9.766306,0.16211374
801245552,3,1741275719380089541,0.10438689,-9.762118,0.14626129
801245562,3,1741275719390073499,0.10737792,-9.773484,0.1683949
801245572,3,1741275719400058135,0.11335997,-9.757631,0.15672988
801245582,3,1741275719410042301,0.10378868,-9.756435,0.15553348
801245592,3,1741275719420025583,0.10707881,-9.766006,0.15553348
801245602,3,1741275719430010530,0.109471634,-9.767801,0.15403795
801245612,3,1741275719439994905,0.10737792,-9.764811,0.15523437
801245622,3,1741275719449978864,0.1055833,-9.763913,0.15672988
801245632,3,1741275719459963499,0.10049855,-9.762118,0.16031912
801245642,3,1741275719469947666,0.09032906,-9.761819,0.15433706
801245652,3,1741275719479931624,0.096909314,-9.7609215,0.14745769
801245662,3,1741275719489916260,0.09900304,-9.766604,0.16390835
801245672,3,1741275719499900426,0.1061815,-9.763614,0.15463616
801245682,3,1741275719509884385,0.104087785,-9.765707,0.15523437
801245692,3,1741275719519867666,0.106480606,-9.774382,0.14745769
801245702,3,1741275719529852614,0.096909314,-9.763614,0.15493527
801245712,3,1741275719539836989,0.093918286,-9.763913,0.15403795
801245722,3,1741275719549821624,0.10378868,-9.757931,0.16002001
801245732,3,1741275719559805791,0.11306087,-9.760623,0.15613168
801245742,3,1741275719569789749,0.093918286,-9.7704935,0.15523437
801245752,3,1741275719579774385,0.1055833,-9.766306,0.16630118
801245762,3,1741275719589757874,0.09840483,-9.7704935,0.15284155
801245772,3,1741275719599742197,0.109471634,-9.763913,0.16061822
801245782,3,1741275719609727041,0.10707881,-9.764811,0.16600206
801245792,3,1741275719619710530,0.111266255,-9.767203,0.15284155
801245802,3,1741275719629564124,0.10677971,-9.774382,0.15613168
801245812,3,1741275719639637614,0.09092726,-9.767203,0.1591227
801245822,3,1741275719649662978,0.104087785,-9.771689,0.14955142
801245832,3,1741275719659647926,0.10438689,-9.7704935,0.14895321
801245842,3,1741275719669631624,0.10468599,-9.758529,0.15044872
801245852,3,1741275719679616572,0.096909314,-9.7704935,0.1585245
801245862,3,1741275719689600270,0.10289137,-9.762118,0.15732808
801245872,3,1741275719699584593,0.10857433,-9.760623,0.14925231
801245882,3,1741275719709569437,0.102592275,-9.77498,0.15523437
801245892,3,1741275719719552926,0.10229317,-9.770194,0.15343975
801245902,3,1741275719729430062,0.09960124,-9.765109,0.16390835
801245912,3,1741275719739518499,0.10348958,-9.762118,0.15194423
801245922,3,1741275719749700791,0.10707881,-9.760623,0.14895321
801245932,3,1741275719759883812,0.09661021,-9.760324,0.16660027
801245942,3,1741275719770034176,0.098703936,-9.775578,0.1680958
801245952,3,1741275719780046260,0.10348958,-9.75165,0.15493527
801245962,3,1741275719790030947,0.1061815,-9.760324,0.148355
801245972,3,1741275719800015062,0.10468599,-9.765109,0.15643078
801245982,3,1741275719809999020,0.11335997,-9.760324,0.15104693
801245992,3,1741275719819982249,0.09840483,-9.753743,0.16420746
801246002,3,1741275719829967405,0.117547415,-9.766904,0.15882361
801246012,3,1741275719839951989,0.111266255,-9.773783,0.15373886
801246022,3,1741275719849935947,0.09990034,-9.75135,0.1582254
801246032,3,1741275719859920635,0.10199407,-9.782457,0.1477568
801246042,3,1741275719869904749,0.10857433,-9.773783,0.15583257
801246052,3,1741275719879888708,0.10109676,-9.773484,0.14985052
801246062,3,1741275719889873395,0.1052842,-9.766604,0.14476576
801246072,3,1741275719899857510,0.10737792,-9.765707,0.15044872
801246082,3,1741275719909841468,0.10977074,-9.767801,0.16121642
801246092,3,1741275719919826155,0.10378868,-9.763314,0.1582254
801246102,3,1741275719929810270,0.104087785,-9.771689,0.16241284
801246112,3,1741275719939794228,0.091525465,-9.769895,0.15702899
801246122,3,1741275719949778916,0.110368945,-9.756734,0.15433706
801246132,3,1741275719959763030,0.08793623,-9.763614,0.1480559
801246142,3,1741275719969746989,0.09272188,-9.7609215,0.15613168
801246152,3,1741275719979731676,0.089132644,-9.754641,0.15224335
801246162,3,1741275719989715791,0.11425728,-9.753445,0.1591227
801246172,3,1741275719999699749,0.100199446,-9.770194,0.16061822
801246182,3,1741275720009684437,0.10229317,-9.764511,0.1477568
801246192,3,1741275720019667822,0.1061815,-9.758828,0.14985052
801246202,3,1741275720029652770,0.11335997,-9.772587,0.16002001
801246212,3,1741275720039637041,0.10049855,-9.766604,0.15373886
801246222,3,1741275720049620999,0.09960124,-9.759726,0.16420746
801246232,3,1741275720059605687,0.111864455,-9.76152,0.15194423
801246242,3,1741275720069589801,0.10827523,-9.761221,0.15314065
801246252,3,1741275720079573760,0.10797612,-9.764212,0.15314065
801246262,3,1741275720089558447,0.10139586,-9.765109,0.1480559
801246272,3,1741275720099542562,0.096311115,-9.775279,0.15433706
801246282,3,1741275720109526520,0.1061815,-9.767203,0.15583257
801246292,3,1741275720119509749,0.09302098,-9.752248,0.14327025
801246302,3,1741275720129494853,0.101694964,-9.763913,0.14356937
801246312,3,1741275720139479124,0.09840483,-9.762716,0.16600206
801246322,3,1741275720149463812,0.109471634,-9.765109,0.15672988
801246332,3,1741275720159447926,0.115752794,-9.7609215,0.14895321
801246342,3,1741275720169431885,0.09661021,-9.756435,0.15343975
801246352,3,1741275720179415114,0.10468599,-9.766306,0.16121642
801246362,3,1741275720189400218,0.104087785,-9.778569,0.14566308
801246372,3,1741275720199385218,0.09601201,-9.758529,0.15672988
801246382,3,1741275720209369333,0.101694964,-9.769297,0.15403795
801246392,3,1741275720219352562,0.09332009,-9.772287,0.15224335
801246402,3,1741275720229337510,0.09900304,-9.775877,0.15553348
801246411,3,1741275720239321937,0.0951147,-9.774382,0.13758731
801246421,3,1741275720249305895,0.10378868,-9.758529,0.14925231
801246431,3,1741275720259290583,0.102592275,-9.760024,0.15882361
801246441,3,1741275720269274697,0.100199446,-9.755239,0.15254244
801246451,3,1741275720279258655,0.11455639,-9.768399,0.15553348
801246461,3,1741275720289243343,0.10468599,-9.759128,0.15553348
801246471,3,1741275720299227458,0.10737792,-9.7681,0.15343975
801246481,3,1741275720309211416,0.09990034,-9.771689,0.148355
801246491,3,1741275720319194645,0.09900304,-9.772287,0.15972091
801246501,3,1741275720329180062,0.10677971,-9.762118,0.14087744
801246511,3,1741275720339164645,0.10049855,-9.760024,0.15044872
801246521,3,1741275720349147874,0.098703936,-9.766904,0.1582254
801246531,3,1741275720359132978,0.1058824,-9.762118,0.1594218
801246541,3,1741275720369117249,0.10797612,-9.760024,0.15583257
801246551,3,1741275720379100478,0.11006984,-9.753743,0.1576272
801246561,3,1741275720388930530,0.11066805,-9.765109,0.15254244
801246571,3,1741275720399042458,0.1052842,-9.763913,0.15164514
801246581,3,1741275720409224749,0.0951147,-9.761221,0.14925231
801246591,3,1741275720419231260,0.11216356,-9.769895,0.15433706
801246601,3,1741275720429319801,0.10378868,-9.772587,0.16061822
801246612,3,1741275720439502093,0.10737792,-9.76152,0.15224335
801246622,3,1741275720449570322,0.09451649,-9.7654085,0.15403795
801246632,3,1741275720459563187,0.12143575,-9.762716,0.14177474
801246642,3,1741275720469547249,0.10199407,-9.777372,0.1576272
801246652,3,1741275720479531208,0.109471634,-9.764811,0.15882361
801246662,3,1741275720489515947,0.11335997,-9.7704935,0.15403795
801246672,3,1741275720499500010,0.11156536,-9.761221,0.16061822
801246682,3,1741275720509483968,0.10707881,-9.77498,0.16271193
801246692,3,1741275720519467145,0.16031912,-9.704989,0.19262223
801246702,3,1741275720529452405,0.17796618,-9.736096,0.7680961
801246712,3,1741275720539437353,5.9820566E-4,-9.853045,0.10049855
801246722,3,1741275720549421416,0.10707881,-9.728918,0.19501504
801246732,3,1741275720559405374,0.053539407,-9.783355,0.15194423
801246742,3,1741275720569390114,0.086141616,-9.770194,0.034695927
801246752,3,1741275720579373395,0.13220344,-9.745667,0.051445685
801246761,3,1741275720589203447,0.15314065,-9.756136,0.017647067
801246771,3,1741275720599163083,0.08315059,-9.773783,-0.0065802624
801246781,3,1741275720609298499,0.09092726,-9.760623,-0.055334024
801246791,3,1741275720619293291,0.1055833,-9.764811,-0.0637089
801246802,3,1741275720629393551,0.1052842,-9.7654085,-0.0951147
801246812,3,1741275720639575843,0.10857433,-9.771091,-0.119042926
801246822,3,1741275720649758968,0.09182457,-9.756435,-0.13010973
801246832,3,1741275720659830478,0.10737792,-9.769895,-0.15732808
801246842,3,1741275720669820010,0.1055833,-9.749855,-0.18305093
801246852,3,1741275720679803187,0.10049855,-9.763314,-0.20518455
801246862,3,1741275720689788447,0.10109676,-9.754341,-0.22701904
801246872,3,1741275720699772510,0.10348958,-9.752547,-0.25603202
801246882,3,1741275720709757301,0.100199446,-9.748958,-0.28743783
801246892,3,1741275720719740478,0.111864455,-9.756435,-0.32422748
801246902,3,1741275720729725114,0.109471634,-9.746864,-0.34187454
801246912,3,1741275720739709958,0.10049855,-9.737592,-0.38285163
801246922,3,1741275720749693968,0.0948156,-9.731311,-0.42502514
801246932,3,1741275720759677926,0.11096715,-9.733404,-0.46899325
801246942,3,1741275720769662718,0.10139586,-9.727721,-0.51535416
801246952,3,1741275720779645895,0.10737792,-9.715159,-0.5620142
801246962,3,1741275720789631312,0.11365908,-9.730413,-0.6257231
801246972,3,1741275720799615374,0.10139586,-9.709775,-0.69092757
801246982,3,1741275720809599333,0.10977074,-9.696316,-0.7636095
801246992,3,1741275720819582458,0.102592275,-9.685847,-0.83060855
801247002,3,1741275720829568239,0.1061815,-9.666704,-0.9089735
801247012,3,1741275720839552353,0.36311084,-9.657133,-1.1042876
801247022,3,1741275720849537145,1.576571,-9.533604,-1.5236298
801247032,3,1741275720859521155,0.8225328,-9.555139,-1.4440684
801247042,3,1741275720869505114,0.7716853,-9.460921,-1.2523435
801247052,3,1741275720879489905,-0.11306087,-9.761819,-1.0648061
801247062,3,1741275720889473916,-0.4989035,-9.471689,-1.5218352
801247072,3,1741275720899457874,-1.0863415,-9.726226,-1.3851452
801247082,3,1741275720909442666,-0.43818563,-8.935697,-2.1284158
801247092,3,1741275720919426676,-0.70977104,-9.647562,-1.9366908
801247102,3,1741275720929410635,-0.02213361,-9.478569,-2.169991
801247112,3,1741275720939395426,0.6436693,-10.079466,-4.4228334
801247122,3,1741275720949379437,5.1843495,-12.190235,-2.4239295
801247132,3,1741275720959363395,3.3284163,-13.818551,1.4886348
801247142,3,1741275720969348187,5.3336015,-10.964512,-3.6906297
801247152,3,1741275720979332197,6.7722864,-8.127222,-7.8670025
801247161,3,1741275720989316989,4.976473,-7.8311105,-8.086245
801247171,3,1741275720999300999,3.0068808,-7.905886,-5.419145
801247181,3,1741275721009284958,-19.437796,-2.2271197,2.7059834
801247191,3,1741275721019268083,-11.339886,-3.6047873,-7.0055866
801247201,3,1741275721029253499,-6.323333,-9.012866,-15.76571
801247211,3,1741275721039238395,-1.1844472,-15.979868,-16.814663
801247221,3,1741275721049222405,5.159823,-6.775277,13.647464
801247231,3,1741275721059206364,1.7548363,-7.4805617,-2.4960132
801247241,3,1741275721069191155,4.025924,-8.379964,0.41844487
801247251,3,1741275721079175166,6.5252275,-7.0731835,1.398904
801247261,3,1741275721089159124,5.499305,-6.0047884,-2.3718855
801247271,3,1741275721099143916,1.1138589,-6.3849483,-7.339086
801247281,3,1741275721109127926,-2.7526433,-6.8162546,-9.34487
801247291,3,1741275721119111051,-0.76570326,-10.848459,-10.550254
801247301,3,1741275721129096312,-1.466202,-13.341482,-6.3254266
801247311,3,1741275721139080374,-1.7201403,-11.846267,-4.8041897
801247321,3,1741275721149065166,0.08554341,-10.578669,-5.734699
801247331,3,1741275721159049176,1.7841483,-10.148858,-5.11077
801247341,3,1741275721169033968,1.1455638,-8.697312,0.48753762
801247351,3,1741275721179017978,1.6707884,-7.242476,-0.08165507
801247361,3,1741275721189001937,2.4074786,-8.048259,-3.4531422
801247371,3,1741275721198986728,0.039780676,-7.4446692,-3.7208393
801247381,3,1741275721208970739,-0.7163513,-6.6708903,-4.0423746
801247391,3,1741275721218953864,-0.20458634,-7.2062845,-4.6205406
801247401,3,1741275721228939437,-0.09272188,-8.638987,-5.819943
801247411,3,1741275721238923551,-0.18813568,-10.119845,-6.470791
801247421,3,1741275721248907510,0.30388847,-10.109377,-5.239384
801247431,3,1741275721258892301,1.4539388,-8.901898,-4.3184466
801247441,3,1741275721268876312,2.1996021,-8.563314,-4.1371903
801247451,3,1741275721278861103,2.0670996,-8.030911,-2.9733813
801247461,3,1741275721288845114,1.7386848,-7.7063847,-2.2582264
801247471,3,1741275721298829072,1.0836495,-8.190632,-1.9082761
801247481,3,1741275721308813864,0.16420746,-9.277572,-2.0467606
801247491,3,1741275721318797041,0.1052842,-10.433305,-2.522334
801247501,3,1741275721328782145,1.6845472,-12.046367,4.9543395
801247511,3,1741275721338766208,1.0513464,-9.660723,-3.083152
801247521,3,1741275721348750999,1.2753744,-9.016156,-0.98883396
801247531,3,1741275721358735010,1.0190433,-9.098409,-1.2987045
801247541,3,1741275721368718968,0.012562319,-9.459127,-0.75583285
801247551,3,1741275721378703760,-0.48095736,-9.684052,-0.35413775
801247561,3,1741275721388687770,-0.7328019,-9.775279,-0.5916254
801247571,3,1741275721398671728,-0.12801601,-9.848858,-0.9804591
801247581,3,1741275721408656520,0.039481573,-9.859028,-1.119841
801247591,3,1741275721418639697,0.18634106,-9.492926,-1.2517453
801247601,3,1741275721428625270,0.34307095,-9.918848,-1.0411769
801247611,3,1741275721438609385,0.23001008,-11.723335,-0.83359957
801247621,3,1741275721448593343,-0.20668006,-10.159626,-0.59760743
801247631,3,1741275721458578135,-0.15643078,-10.039087,-0.70588267
801247641,3,1741275721468561312,0.27876383,-10.871191,-0.6667002
801247651,3,1741275721478546728,1.2658032,-11.180464,-0.57457656
801247661,3,1741275721488530791,1.6710875,-10.897213,-0.5455636
801247671,3,1741275721498514749,1.0983056,-9.831211,-0.7199405
801247681,3,1741275721508499541,0.011365907,-8.787342,-0.63170516
801247691,3,1741275721518482718,-1.0597214,-8.707183,-0.5491528
801247701,3,1741275721528467822,-1.2535399,-9.240184,-0.58265233
801247711,3,1741275721538451885,-0.47916272,-9.6224375,-0.6469594
801247721,3,1741275721548436676,0.15403795,-9.985847,-0.51236314
801247731,3,1741275721558420687,0.69302124,-9.902397,-0.47377887
801247741,3,1741275721568404645,1.1312069,-9.531809,-0.46091747
801247751,3,1741275721578389437,0.5799604,-9.13131,-0.15732808
801247761,3,1741275721588373447,-0.10977074,-8.805886,-0.43878385
801247771,3,1741275721598358239,0.22612174,-8.826225,-0.3481557
801247781,3,1741275721608342249,0.24077778,-9.128918,-0.3822534
801247790,3,1741275721618325374,0.369392,-9.569197,-0.25633112
801247800,3,1741275721628190739,0.34546378,-9.93799,-0.62183475
801247811,3,1741275721638349645,0.55513483,-10.164112,-0.5192425
801247821,3,1741275721648332718,0.9768698,-10.0014,-0.5590232
801247830,3,1741275721658266624,1.2403795,-9.474082,-0.4962116
801247841,3,1741275721668434124,0.5306084,-9.073584,-0.35324043
801247851,3,1741275721678616416,0.3164508,-9.28475,-0.39720857
801247861,3,1741275721688799593,0.25064817,-9.671191,-0.18544376
801247871,3,1741275721698787978,0.13609178,-9.958031,-0.37686956
801247881,3,1741275721708772822,0.25184458,-10.223334,-0.87936234
801247891,3,1741275721718755895,0.72293156,-10.575678,-0.24526432
801247901,3,1741275721728741312,0.631107,-10.346864,-0.4848457
801247911,3,1741275721738725270,0.64606214,-9.750752,-0.5802595
801247921,3,1741275721748709228,0.8775677,-9.416355,-0.53688955
801247931,3,1741275721758694072,0.60059845,-9.391829,-0.50817573
801247941,3,1741275721768678030,0.11545369,-9.42503,-0.4001996
801247951,3,1741275721778661989,-0.29641092,-9.565309,-0.41844487
801247961,3,1741275721788646833,-0.3900301,-9.840782,-0.29850462
801247971,3,1741275721798629905,0.07836494,-10.076475,-0.63798636
801247981,3,1741275721808424645,0.30089745,-10.096814,-1.0046864
801247991,3,1741275721818607041,0.64845496,-10.127323,-0.13519448
801248001,3,1741275721828777614,0.42681974,-10.0014,-0.41994038
801248011,3,1741275721838760687,0.46869412,-9.862019,-0.6158527
801248021,3,1741275721848942978,0.5341976,-9.78156,-0.6577271
801248031,3,1741275721859114228,0.41365921,-9.772886,-0.46630132
801248041,3,1741275721869108239,0.45673,-9.816555,-0.4776672
801248051,3,1741275721879093030,0.47916272,-9.842278,-0.57876396
801248061,3,1741275721889076989,0.22612174,-9.905987,-0.47347978
801248071,3,1741275721899060999,0.1893321,-10.031909,-0.4339982
801248081,3,1741275721909045739,0.34516466,-10.166505,-0.4235296
801248091,3,1741275721919028812,0.5706882,-10.31157,-0.30059835
801248101,3,1741275721929014437,0.6906284,-10.158131,-0.35623148
801248111,3,1741275721938998395,0.5841478,-9.932607,-0.200698
801248121,3,1741275721948982405,0.63230336,-9.932607,-0.38644084
801248131,3,1741275721958967197,0.7902297,-10.047761,-0.36191443
801248141,3,1741275721968951208,0.60658056,-10.085748,-0.35832518
801248151,3,1741275721978935999,0.24077778,-10.107582,-0.37986058
801248161,3,1741275721988919958,-0.18125631,-10.2015,-0.58713883
801248171,3,1741275721998903968,-0.21385853,-10.3136635,-0.5814559
801248181,3,1741275722008888708,0.041874398,-10.369895,-0.45702913
801248191,3,1741275722018871780,0.36131623,-10.196116,-0.23718855
801248201,3,1741275722028857405,0.70169526,-9.966106,-0.4728816
801248211,3,1741275722038841364,0.79800636,-9.744472,-0.43908295
801248221,3,1741275722048825374,0.7917252,-9.675677,-0.23629123
801248231,3,1741275722058810114,0.92213404,-9.74836,-0.50009996
801248241,3,1741275722068793187,1.0115658,-9.930812,-0.43878385
801248251,3,1741275722078778760,0.9236295,-10.265209,-0.43459642
801248261,3,1741275722088761833,0.72023964,-10.556834,-0.48035914
801248271,3,1741275722098747405,0.7088737,-10.498809,-0.5419743
801248281,3,1741275722108730478,0.71425754,-10.162916,-0.1471586
801248291,3,1741275722118537041,0.72263247,-9.802497,-0.56380886
801248301,3,1741275722128695895,0.5808577,-9.421141,-0.19531415
801248311,3,1741275722138690687,0.34785658,-9.428618,-0.26859435
801248321,3,1741275722148872978,0.293719,-9.608379,-0.30119655
801248331,3,1741275722159055374,0.45583272,-9.802198,-0.08853444
801248341,3,1741275722169216260,0.5799604,-9.824331,-0.15373886
801248351,3,1741275722179208916,0.6047859,-9.757333,-0.22402802
801248361,3,1741275722189193655,0.6771688,-9.795917,-0.21385853
801248371,3,1741275722199177614,0.62931234,-9.94128,-0.046660043
801248381,3,1741275722209161468,0.6795616,-10.087243,0.009272188
801248391,3,1741275722219144541,0.6828518,-10.322338,0.09092726
801248401,3,1741275722229130843,0.5605187,-10.453046,-0.025722843
801248411,3,1741275722239114801,0.369392,-10.536197,-0.32392836
801248421,3,1741275722249098864,0.42951167,-10.577173,-0.49471608
801248431,3,1741275722259083603,0.8437691,-10.628021,-0.453739
801248441,3,1741275722269067562,1.1368898,-10.549656,-0.36161533
801248451,3,1741275722279051624,1.1455638,-10.34178,-0.31046873
801248461,3,1741275722289036364,0.8775677,-10.240982,-0.38853458
801248471,3,1741275722299020426,0.45912284,-10.336395,-0.45164528
801248481,3,1741275722309005062,0.3499503,-10.383355,-0.392722
801248491,3,1741275722318988135,0.57876396,-10.401002,-0.34097722
801248501,3,1741275722328973239,0.5907281,-10.510473,-0.21894327
801248511,3,1741275722338956468,0.41156548,-10.703694,0.022731815
801248521,3,1741275722348941989,0.34576288,-10.780264,0.18454644
801248531,3,1741275722358926051,0.35204405,-10.54487,0.26799613
801248541,3,1741275722368910791,0.51056856,-10.252946,0.104087785
801248551,3,1741275722378894853,0.71246296,-10.118948,-0.29820552
801248561,3,1741275722388879593,0.8985049,-10.0830555,-0.6903293
801248571,3,1741275722398863551,0.8925229,-10.039087,-0.7513463
801248581,3,1741275722408847405,0.75583285,-9.835099,-0.3906283
801248591,3,1741275722418830478,0.55304116,-9.60479,0.11425728
801248601,3,1741275722428816780,0.2748755,-9.479765,0.59312093
801248611,3,1741275722438800739,0.06011967,-9.48126,0.6975078
801248621,3,1741275722448784801,-0.016151553,-9.631111,0.60747784
801248631,3,1741275722458769541,-0.023928227,-9.828519,0.32362926
801248641,3,1741275722468753603,0.1265205,-10.034601,0.051146585
801248651,3,1741275722478738343,0.56380886,-10.261321,-0.06131608
801248661,3,1741275722488722301,1.05015,-10.347761,-0.053240303
801248671,3,1741275722498706155,1.3767704,-10.215558,-0.12203395
801248681,3,1741275722508689228,1.3351951,-10.010673,-0.38464624
801248691,3,1741275722518672301,0.9346963,-9.943375,-0.46061835
801248701,3,1741275722528807822,0.37657046,-10.028021,-0.27756742
801248711,3,1741275722538773708,-0.030807592,-10.117153,0.018544376
801248721,3,1741275722548628083,-0.16779669,-10.063016,0.47198427
801248731,3,1741275722558636155,-0.070289165,-9.930812,0.77706915
801248741,3,1741275722568818447,0.3930211,-9.894621,0.80548394
801248751,3,1741275722579000895,0.9098708,-9.975378,0.47856453
801248761,3,1741275722589149697,1.2008978,-10.1237335,-0.040677983
801248771,3,1741275722599137301,1.1557333,-10.17817,-0.54735816
801248781,3,1741275722609121103,0.669093,-10.086046,-0.80967134
801248791,3,1741275722619104176,0.23330021,-10.035499,-0.6723832
801248801,3,1741275722629239697,0.05503492,-10.084551,-0.1689931
801248812,3,1741275722639422197,0.22492532,-10.386645,0.49292147
801248822,3,1741275722649579124,0.63230336,-10.703395,1.0172487
801248832,3,1741275722659630114,0.87308115,-10.885549,1.2774682
801248842,3,1741275722669614280,0.77706915,-10.802398,1.2966107
801248852,3,1741275722679598916,0.5949155,-10.588539,1.1542379
801248862,3,1741275722689583083,0.3281158,-10.534102,0.90029955
801248872,3,1741275722699567718,-0.046959143,-10.459626,0.7788638
801248882,3,1741275722709551468,-0.28863424,-10.321141,0.7040881
801248892,3,1741275722719534541,-0.20548365,-10.320843,0.6119644
801248902,3,1741275722729376468,0.14267205,-10.584352,0.42711884
801248912,3,1741275722739386885,0.31465617,-10.9992075,0.36191443
801248922,3,1741275722749488447,0.22642085,-11.39522,0.5515456
801248932,3,1741275722759506676,0.1480559,-11.55853,0.91435736
801248942,3,1741275722769688968,0.014356935,-11.534003,1.3070793
801248952,3,1741275722779871520,-0.24945176,-11.307283,1.5556338
801248962,3,1741275722790001312,-0.44506502,-10.945369,1.7967107
801248972,3,1741275722799997770,-0.35204405,-10.634602,1.8975084
801248982,3,1741275722809981468,-0.08315059,-10.473085,1.5323038
801248992,3,1741275722819964541,-0.10677971,-10.373185,0.8883354
801249002,3,1741275722829950999,-0.29850462,-10.416256,0.24197419
801249012,3,1741275722839935218,-0.45762733,-10.573883,0.08015956
801249022,3,1741275722849919801,-0.253041,-10.843973,0.37686956
801249032,3,1741275722859903760,0.14297116,-11.093425,0.7573284
801249042,3,1741275722869887978,0.27756742,-11.056336,1.1132607
801249052,3,1741275722879872562,0.28175488,-10.902298,1.3336995
801249062,3,1741275722889856780,0.22432712,-10.665409,1.2759727
801249072,3,1741275722899841364,-0.07836494,-10.319646,1.1213365
801249082,3,1741275722909825062,-0.48125646,-10.14168,1.0522437
801249092,3,1741275722919808135,-0.6687939,-10.193724,1.0486546
801249102,3,1741275722929791312,-0.65712893,-10.380363,1.1335998
801249112,3,1741275722939774385,-0.49022955,-10.391729,1.2637094
801249122,3,1741275722949804333,-0.328714,-10.428819,1.6211374
801249132,3,1741275722959986624,-0.082851484,-10.536197,1.9791634
801249142,3,1741275722970098603,0.15074782,-10.667802,2.1326032
801249152,3,1741275722980140270,0.2527419,-10.617851,1.9743778
801249162,3,1741275722990264749,0.25393832,-10.327124,1.7715861
801249172,3,1741275723000270739,0.3152544,-10.094721,1.6429719
801249182,3,1741275723010253812,0.50189453,-9.973883,1.5795621
801249192,3,1741275723020295687,0.60628146,-9.803394,1.6408781
801249203,3,1741275723030477978,0.06849455,-9.760623,1.5843477
801249213,3,1741275723040660687,-0.42652065,-9.579965,1.5290136
801249223,3,1741275723050843864,-0.63230336,-9.527621,1.4754742
801249233,3,1741275723061027041,-0.6798607,-9.598509,1.5427724
801249243,3,1741275723071210218,-0.6436693,-9.760623,1.6938193
801249253,3,1741275723081309645,-0.55334026,-9.880563,1.8173488
801249263,3,1741275723091304853,-0.20309082,-9.902397,1.9686948
801249273,3,1741275723101289228,0.2853441,-9.746565,2.0282164
801249283,3,1741275723111273239,0.6436693,-9.582657,2.0455642
801249293,3,1741275723121220999,0.94636136,-9.515957,1.8340986
801249303,3,1741275723131192093,0.34337005,-9.600603,1.8487546
801249314,3,1741275723141374385,-0.0047856453,-9.62812,1.9166509
801249324,3,1741275723151556676,0.16450655,-9.414262,2.0578275
801249334,3,1741275723161621780,0.017048862,-9.077472,2.0757737
801249344,3,1741275723171710322,0.02213361,-8.889337,2.1565313
801249354,3,1741275723181892614,0.22462623,-8.710174,2.224727
801249364,3,1741275723192075426,0.13280165,-8.608778,2.2758734
801249374,3,1741275723202238812,0.08165507,-8.585747,2.3243282
801249384,3,1741275723212290426,-0.117547415,-8.527422,2.2025933
801249394,3,1741275723222273603,-0.69182485,-8.349156,2.312663
801249405,3,1741275723232385583,-1.1814562,-8.103892,2.7765715
801249415,3,1741275723242568447,-1.4072788,-7.8050885,3.4770703
801249425,3,1741275723252747614,-1.4473586,-7.611569,4.0438704
801249435,3,1741275723262800270,-1.3603196,-7.69113,4.325326
801249445,3,1741275723272784541,-1.2083755,-8.063812,4.4007
801249455,3,1741275723282769072,-0.7923234,-8.696415,4.465904
801249465,3,1741275723292753343,-0.01585245,-9.347562,4.2421756
801249475,3,1741275723302737874,0.62961143,-9.950553,3.4528432
801249485,3,1741275723312721572,1.0085747,-10.400404,2.3186452
801249495,3,1741275723322704749,1.0845468,-10.621739,0.91405827
801249505,3,1741275723332605426,0.7319046,-10.548161,0.11934203
801249515,3,1741275723342646989,-0.41934216,-10.360922,0.056530435
801249525,3,1741275723352829280,-1.18684,-10.3136635,0.631107
801249535,3,1741275723363012301,-1.5340984,-10.142278,1.6181463
801249545,3,1741275723373195478,-1.4162519,-9.770194,2.649752
801249556,3,1741275723383378655,-1.3459628,-9.037691,3.3397822
801249566,3,1741275723393561833,-1.9725832,-8.427522,3.8033917
801249576,3,1741275723403745010,-2.6485555,-8.03809,4.1718864
801249586,3,1741275723413763395,-2.8758738,-7.7566338,4.3669014
801249596,3,1741275723423828499,-2.6676981,-7.7503524,4.328915
801249606,3,1741275723434010791,-2.1475582,-7.870592,3.839583
801249616,3,1741275723444029020,-1.8290138,-8.035697,3.3696926
801249626,3,1741275723454164437,-1.6627127,-8.082656,2.838785
801249636,3,1741275723464237353,-1.5427724,-8.029117,2.3919253
801249646,3,1741275723474232145,-1.2981063,-8.012666,2.14367
801249656,3,1741275723484217093,-0.71336025,-8.115856,2.056033
801249666,3,1741275723494201364,-0.25872394,-8.202297,2.224727
801249676,3,1741275723504186051,-0.33080772,-8.341081,2.609373
801249686,3,1741275723514169437,-0.8856435,-8.328518,3.0317063
801249696,3,1741275723524117301,-1.5924234,-8.278269,3.4046874
801249706,3,1741275723534229333,-2.1541386,-8.250452,3.565605
801249716,3,1741275723544212405,-2.2740788,-8.344071,3.4417763
801249727,3,1741275723554371260,-1.7880367,-8.663513,3.1836505
801249737,3,1741275723564553551,-0.974477,-9.037093,2.8139594
801249747,3,1741275723574736728,-0.32063824,-9.38465,2.5414767
801249757,3,1741275723584919905,-0.12263216,-9.545269,2.411068
801249767,3,1741275723595103083,-0.41515473,-9.590134,2.562115
801249777,3,1741275723605286260,-0.92602235,-9.619745,2.798705
801249787,3,1741275723615269333,-1.5254245,-9.6122675,3.0032916
801249798,3,1741275723625369593,-1.9935204,-9.51476,3.2045877
801249808,3,1741275723635551885,-2.295315,-9.438788,3.1839497
801249818,3,1741275723645534958,-2.2935205,-9.330214,3.295515
801249828,3,1741275723655705530,-2.0536401,-9.375677,3.3693933
801249838,3,1741275723665697458,-1.7162521,-9.569795,3.2395828
801249848,3,1741275723675681416,-1.4617156,-9.697213,3.1573296
801249858,3,1741275723685665374,-1.454537,-9.575777,2.9093733
801249868,3,1741275723695650218,-1.6968104,-9.327521,2.7714868
801249878,3,1741275723705633291,-2.0030916,-9.19472,2.6709883
801249888,3,1741275723715616364,-2.1765714,-9.267402,2.5591238
801249898,3,1741275723725446624,-1.9806589,-9.660423,2.7876384
801249908,3,1741275723735629228,-1.6654046,-10.026824,3.1600213
801249918,3,1741275723745811520,-1.6863418,-10.098908,3.4941192
801249928,3,1741275723755993812,-1.9627128,-9.975977,3.6209388
801249938,3,1741275723766176364,-2.2088745,-9.807881,3.4633117
801249949,3,1741275723776359541,-2.329712,-9.74836,3.252145
801249959,3,1741275723786542718,-2.1999013,-9.77797,3.0352955
801249969,3,1741275723796725895,-1.9791634,-9.820144,2.6961129
801249979,3,1741275723806909072,-1.7051853,-9.902996,2.7242286
801249989,3,1741275723817092249,-1.6417755,-9.927522,3.1223345
801249999,3,1741275723827275426,-1.9426728,-9.933504,3.5551362
801250010,3,1741275723837458603,-2.3291137,-9.916156,3.8237305
801250020,3,1741275723847641780,-2.7613173,-9.695119,3.9388852
801250030,3,1741275723857824958,-3.0675986,-9.425926,3.7977087
801250040,3,1741275723868008135,-3.1782668,-9.083753,3.2871401
801250050,3,1741275723878183239,-3.0996027,-8.868399,2.5764718
801250060,3,1741275723888288708,-2.7592237,-8.896215,2.024328
801250070,3,1741275723898273030,-2.385046,-9.1618185,1.8562322
801250080,3,1741275723908232562,-2.175674,-9.64457,1.9920249
801250090,3,1741275723918133187,-1.8717855,-10.205389,2.3629124
801250100,3,1741275723928315478,-1.608575,-10.512268,2.7993033
801250111,3,1741275723938415739,-1.6283158,-10.442577,2.9440691
801250121,3,1741275723948457405,-1.6031911,-10.251749,2.8369904
801250131,3,1741275723958639697,-1.5173486,-10.171889,2.7502506
801250141,3,1741275723968822353,-1.4024931,-10.146465,3.0487552
801250151,3,1741275723979005530,-1.4018949,-10.235,3.6023946
801250161,3,1741275723989188708,-1.6890336,-10.305289,4.005884
801250171,3,1741275723999290583,-2.000998,-10.300204,4.1751766
801250181,3,1741275724009275583,-2.0635104,-10.162916,4.2329035
801250191,3,1741275724019259541,-1.8717855,-10.132109,4.1817565
801250201,3,1741275724029243864,-1.5421742,-10.153345,3.9478583
801250211,3,1741275724039228343,-1.4030914,-10.197911,3.5560336
801250221,3,1741275724049212666,-1.4668003,-10.2774725,3.2338998
801250231,3,1741275724059197145,-1.628914,-10.11506,3.1998022
801250241,3,1741275724069181468,-1.8945173,-9.777672,3.2727833
801250251,3,1741275724079165947,-2.1652055,-9.499805,3.4683964
801250261,3,1741275724089149905,-2.2178476,-9.404691,3.8554354
801250271,3,1741275724099133499,-2.1568305,-9.47139,4.2257247
801250281,3,1741275724109117405,-2.179263,-9.602996,4.4925246
801250291,3,1741275724119102926,-2.3309083,-9.552148,4.532903
801250301,3,1741275724129086520,-2.501696,-9.275179,4.4602213
801250311,3,1741275724139070635,-2.5459633,-8.845069,4.325625
801250321,3,1741275724149056155,-2.309373,-8.462517,3.978965
801250331,3,1741275724159040478,-1.9450657,-8.329415,3.4519458
801250341,3,1741275724169024958,-1.736591,-8.509176,2.9949167
801250351,3,1741275724179008916,-1.8343977,-8.844471,2.8743782
801250361,3,1741275724188992510,-1.9423738,-9.126823,3.21715
801250371,3,1741275724198976624,-1.9396819,-9.229416,3.7366917
801250381,3,1741275724208962145,-1.8191434,-9.09811,4.1644087
801250391,3,1741275724218946468,-1.6453646,-8.84806,4.4688954
801250401,3,1741275724228930947,-1.4243277,-8.525328,4.671388
801250411,3,1741275724238914905,-1.1300105,-8.350652,4.4614177
801250421,3,1741275724248899228,-1.1644074,-8.385049,3.9960139
801250431,3,1741275724258883708,-1.4186447,-8.673982,3.4803605
801250441,3,1741275724268868030,-1.8257236,-8.992527,3.0867412
801250451,3,1741275724278852510,-2.0461624,-9.261719,2.9575288
801250461,3,1741275724288836103,-2.0015962,-9.21476,3.2407792
801250471,3,1741275724298820010,-1.931606,-8.963215,3.6571302
801250481,3,1741275724308805166,-1.7521443,-8.804091,4.08724
801250491,3,1741275724318789176,-1.5655042,-8.720942,4.4279184
801250501,3,1741275724328774176,-1.5678971,-8.708977,4.5281177
801250511,3,1741275724338757770,-1.7847466,-8.586345,4.5559344
801250521,3,1741275724348741780,-2.2061825,-8.455338,4.3298125
801250531,3,1741275724358726780,-2.4771698,-8.344969,3.903292
801250541,3,1741275724368711103,-2.329413,-8.153244,3.211467
801250551,3,1741275724378695583,-2.108974,-8.070991,2.864807
801250561,3,1741275724388679905,-1.8586249,-8.06441,2.8836503
801250571,3,1741275724398664385,-1.7793628,-8.23101,3.1669009
801250581,3,1741275724408648708,-1.506581,-8.36441,3.7229328
801250591,3,1741275724418633187,-1.1889337,-8.397312,4.2134614
801250601,3,1741275724428617145,-1.2038889,-8.172386,4.469793
801250611,3,1741275724438600739,-1.509572,-7.7063847,4.5373898
801250621,3,1741275724448584853,-1.8478572,-7.144071,4.182355
801250631,3,1741275724458570374,-2.1427727,-6.834799,3.3403804
801250641,3,1741275724468554697,-2.4116662,-6.579066,2.7693932
801250651,3,1741275724478539176,-2.4825535,-6.4612193,2.536093
801250661,3,1741275724488522770,-2.4335005,-7.079465,2.6943183
801250671,3,1741275724498435218,-2.0982063,-7.908279,3.487838
801250681,3,1741275724508379801,-1.5227325,-8.556734,4.179663
801250691,3,1741275724518475895,-1.2541381,-8.758927,4.6639104
801250701,3,1741275724528447197,-1.5634105,-8.359326,4.9136615
801250711,3,1741275724538395114,-2.0201404,-7.475776,4.7569313
801250721,3,1741275724548577405,-2.4050858,-6.8285174,4.3390846
801250731,3,1741275724558760374,-2.5354948,-6.7686973,4.037888
801250741,3,1741275724568943551,-2.2848465,-7.045666,3.976273
801250751,3,1741275724579126728,-1.7078772,-7.4383883,4.127021
801250761,3,1741275724589309905,-1.2113664,-7.7362947,4.241278
801250772,3,1741275724599493083,-0.52612185,-7.7569327,4.031308
801250782,3,1741275724609676260,-0.49471608,-7.640881,3.8404803
801250792,3,1741275724619859437,-1.07019,-7.320841,3.6394832
801250802,3,1741275724630042614,-1.3863416,-7.057032,3.572185
801250812,3,1741275724640225791,-1.640579,-7.0196443,3.9332023
801250823,3,1741275724650408968,-1.5900307,-6.9762745,4.3118663
801250833,3,1741275724660439124,-1.4330016,-6.9936223,4.700401
801250843,3,1741275724670562822,-1.3109677,-6.8952174,5.0105705
801250853,3,1741275724680592770,-1.3737793,-6.768398,5.232804
801250863,3,1741275724690575843,-1.8182461,-6.860821,5.2085767
801250873,3,1741275724700652874,-2.2561326,-7.090532,5.1529436
801250883,3,1741275724710835166,-2.3138595,-7.242177,4.98754
801250893,3,1741275724720841676,-2.1311076,-7.498209,4.8711886
801250903,3,1741275724730988812,-1.7057835,-7.7066836,4.7419763
801250913,3,1741275724740995322,-1.1338989,-7.600502,4.64417
801250923,3,1741275724751142458,-0.948156,-7.2009006,4.7192445
801250933,3,1741275724761324749,-1.0677971,-7.0112696,4.9666023
801250944,3,1741275724771507822,-1.2439687,-7.166803,5.260022
801250954,3,1741275724781690999,-1.3073785,-7.328019,5.4341
801250964,3,1741275724791874176,-1.3423735,-7.1638117,5.569893
801250974,3,1741275724802057353,-1.1862419,-6.81446,5.672186
801250984,3,1741275724812240530,-0.7187441,-6.605985,5.902196
801250995,3,1741275724822423708,-0.3385844,-6.6652074,6.3397837
801251005,3,1741275724832606885,-0.45014977,-6.875178,6.9822564
801251015,3,1741275724842666624,-0.37686956,-7.0983086,7.5149584
801251025,3,1741275724852657562,-0.15702899,-7.353443,7.643274
801251035,3,1741275724862642301,0.0029910284,-7.318747,7.350751
801251045,3,1741275724872626364,-0.046660043,-7.055238,6.9020967
801251055,3,1741275724882611103,-0.17078772,-6.5904317,6.613762
801251065,3,1741275724892594385,-0.3502494,-6.133403,6.4064837
801251075,3,1741275724902579489,-0.59641105,-5.7463636,6.3547387
801251085,3,1741275724912562874,-0.7498508,-5.638088,6.608079
801251095,3,1741275724922548135,-0.3999005,-5.7059846,7.090831
801251105,3,1741275724932532301,0.12951152,-5.7777696,7.520941
801251115,3,1741275724942515478,0.37088752,-5.9123654,7.9187474
801251125,3,1741275724952500739,0.26799613,-5.8707905,8.1230345
801251135,3,1741275724962485687,-0.4325027,-5.7634125,8.304889
801251145,3,1741275724972469749,-1.2664014,-5.413163,8.437391
801251155,3,1741275724982454489,-1.9627128,-5.0602217,8.408977
801251165,3,1741275724992438551,-2.0521445,-4.8735814,8.430512
801251175,3,1741275725002423291,-1.4781662,-4.9585266,8.355737
801251185,3,1741275725012407353,-0.6972087,-5.4577293,8.254042
801251195,3,1741275725022391312,-0.18065812,-5.940481,8.092227
801251205,3,1741275725032376051,-0.1683949,-6.215058,7.897511
801251215,3,1741275725042359333,-0.5922236,-5.898009,7.818847
801251224,3,1741275725052177614,-1.0941181,-5.0249276,7.6534433
801251234,3,1741275725062306780,-1.4219348,-4.2000017,7.728817
801251244,3,1741275725072313239,-1.3752748,-3.7674992,7.780562
801251254,3,1741275725082297978,-1.3336995,-3.7238302,7.4940214
801251264,3,1741275725092282041,-1.2352947,-3.9254255,7.2326055
801251275,3,1741275725102440999,-0.91196454,-4.1291146,6.942775
801251285,3,1741275725112623291,-0.6798607,-4.5155554,6.9128647
801251295,3,1741275725122806416,-0.6308079,-4.589733,7.333403
801251305,3,1741275725132806260,-0.55034924,-4.3651066,7.953144
801251315,3,1741275725142791312,-0.62871414,-4.0677986,8.5016985
801251325,3,1741275725152775322,-0.5982057,-3.8886359,8.912965
801251335,3,1741275725162760114,-0.58983076,-3.650849,9.129815
801251345,3,1741275725172744124,-0.46749774,-3.4390843,9.086744
801251355,3,1741275725182728083,-0.21326032,-3.3520455,8.973384
801251365,3,1741275725192712874,-0.1058824,-3.3179476,8.880363
801251375,3,1741275725202696885,0.1576272,-3.226123,8.761918
801251385,3,1741275725212681676,0.022432713,-3.204887,8.473284
801251395,3,1741275725222665687,-0.5054838,-3.1606195,8.22443
801251405,3,1741275725232650478,-0.67118675,-3.1543384,8.369495
801251415,3,1741275725242634489,-0.552742,-3.2769706,8.865408
801251425,3,1741275725252618447,-0.46779683,-3.6137605,9.532706
801251435,3,1741275725262603239,-0.059820566,-3.7480576,9.844072
801251445,3,1741275725272587249,0.5297111,-3.6466618,9.59492
801251455,3,1741275725282572041,0.38913277,-3.7163527,9.497113
801251465,3,1741275725292556051,-0.32123643,-3.5715868,9.786943
801251475,3,1741275725302540843,-0.89431745,-2.9004002,10.627422
801251485,3,1741275725312524853,-1.0959128,-2.1966112,10.904093
801251495,3,1741275725322508812,-1.2702898,-1.9103698,10.623236
801251505,3,1741275725332493603,-1.1907284,-2.1481566,10.363016
801251515,3,1741275725342477614,-0.78424764,-2.4705894,9.183653
801251525,3,1741275725352462405,-0.6266204,-3.0430722,7.027122
801251535,3,1741275725362446416,-0.96789676,-3.8614175,6.193223
801251545,3,1741275725372431208,-0.45762733,-3.6984065,7.652845
801251555,3,1741275725382415218,-0.04965107,-2.8974092,10.101301
801251565,3,1741275725392399176,-0.18903299,-2.3315065,11.583654
801251575,3,1741275725402383968,-0.093918286,-2.2145574,11.831611
801251585,3,1741275725412367978,0.21535404,-2.4571297,11.233405
801251595,3,1741275725422352770,0.26949164,-2.693122,10.48176
801251605,3,1741275725432336780,0.16689938,-2.7622147,9.943075
801251614,3,1741275725442321572,0.50488555,-2.5585256,9.671789
801251624,3,1741275725452305583,0.83001035,-2.059622,9.813564
801251634,3,1741275725462290374,0.5599205,-2.0336,10.3349
801251644,3,1741275725472274385,-0.12891331,-2.2947168,10.531112
801251654,3,1741275725482258343,-0.42711884,-2.158326,10.091729
801251664,3,1741275725492243135,-0.4444668,-2.0018952,9.578768
801251674,3,1741275725502227145,-0.8470592,-2.1744776,9.373584
801251684,3,1741275725512211937,-0.4776672,-2.1556342,9.335598
801251694,3,1741275725522195947,0.37387854,-1.7925233,9.046964
801251704,3,1741275725532180739,0.9837492,-1.5661024,8.703294
801251714,3,1741275725542164749,0.9586246,-1.6073786,8.79153
801251724,3,1741275725552148708,0.62512493,-1.5610176,8.863613
801251734,3,1741275725562133499,0.2739782,-1.3887345,9.139087
801251744,3,1741275725572117510,0.111266255,-1.2391831,9.515957
801251754,3,1741275725582100635,-0.22971097,-1.3169497,9.7196455
801251764,3,1741275725592086051,-0.04875376,-1.6396817,10.192527
801251774,3,1741275725602070947,0.45583272,-1.7964116,10.371989
801251784,3,1741275725612054958,0.71336025,-1.4700904,10.00469
801251794,3,1741275725622039749,0.91166544,-1.1045867,9.795019
801251804,3,1741275725632023760,0.7435696,-0.74476606,9.597611
801251814,3,1741275725642008551,0.46899325,-0.4743771,9.6224375
801251824,3,1741275725651992562,0.62153566,-0.3469593,9.456435
801251834,3,1741275725661976520,1.4410775,-0.733101,9.098409
801251844,3,1741275725671961312,1.783251,-0.99690974,8.88814
801251854,3,1741275725681945322,1.2119647,-0.9457632,9.208479
801251864,3,1741275725691930114,0.53270215,-0.9726824,9.744172
801251874,3,1741275725701914124,-0.011665011,-0.974477,9.880263
801251884,3,1741275725711898916,-0.11306087,-0.8341978,9.731609
801251894,3,1741275725721882926,0.36789647,-0.47198427,9.795319
801251904,3,1741275725731866885,1.1297114,-0.2111666,9.882058
801251914,3,1741275725741851676,1.7727824,-0.17766708,10.172487
801251924,3,1741275725751835687,2.0162523,-0.01375873,10.7793665
801251934,3,1741275725761820478,1.494916,0.1471586,10.788639
801251944,3,1741275725771804489,0.58953166,0.45673,10.287642
801251954,3,1741275725781789280,-0.22791636,0.6164509,9.841979
801251964,3,1741275725791773291,-0.68524456,0.72263247,9.250054
801251974,3,1741275725801758083,-0.46959144,0.83359957,8.476275
801251984,3,1741275725811742093,0.20578274,0.89431745,7.8960156
801251994,3,1741275725821726051,0.8282157,0.767797,7.6797643
801252004,3,1741275725831710843,1.1766706,0.5189434,7.958827
801252014,3,1741275725841694853,1.3830515,0.2551347,8.615657
801252024,3,1741275725851679645,1.5128621,0.02961118,9.606585
801252034,3,1741275725861663655,1.6477575,0.10977074,10.469795
801252044,3,1741275725871648447,1.6648064,0.39212382,11.204392
801252054,3,1741275725881632458,1.4045869,0.67178494,11.724532
801252064,3,1741275725891616416,0.59611195,0.7223333,11.414661
801252074,3,1741275725901601208,0.019142581,0.74596244,10.921142
801252084,3,1741275725911585218,-0.50069815,0.8536395,10.173983
801252094,3,1741275725921570010,-0.6266204,0.95413804,9.542876
801252104,3,1741275725931554020,-0.2542374,1.076172,8.8238325
801252114,3,1741275725941538812,0.21026929,1.1368898,8.222636
801252124,3,1741275725951522822,0.60388863,0.9532407,8.32792
801252134,3,1741275725961507614,0.8111669,0.50488555,8.908179
801252144,3,1741275725971491624,0.8560323,-0.046061836,9.906585
801252154,3,1741275725981475583,0.8991031,-0.40767714,11.132607
801252164,3,1741275725991460374,0.86889374,-0.6999006,11.953645
801252174,3,1741275726001444385,0.8446664,-0.6798607,11.910872
801252184,3,1741275726011429176,0.8449655,-0.35174492,10.958829
801252194,3,1741275726021413187,0.9131609,0.18005991,9.913465
801252204,3,1741275726031397978,0.9346963,0.5736792,9.186943
801252214,3,1741275726041381989,0.7908279,0.75583285,8.75145
801252224,3,1741275726051366780,0.33290145,0.6978069,8.803793
801252234,3,1741275726061350791,-0.35712877,0.6412765,9.132806
801252244,3,1741275726071334749,-0.77587277,0.6239285,9.643674
801252253,3,1741275726081319541,-0.6972087,0.5667999,10.1084795
801252263,3,1741275726091303551,-0.5168497,0.7812566,10.275378
801252273,3,1741275726101288343,-0.4001996,1.1479566,10.462617
801252283,3,1741275726111272353,-0.30897322,1.4330016,10.449756
801252293,3,1741275726121255478,-0.3361916,1.250848,10.2723875
801252303,3,1741275726131240895,-0.32093734,0.817448,10.103992
801252313,3,1741275726141225791,-0.2545365,0.23419751,9.867402
801252323,3,1741275726151209801,-0.1274178,-0.17736799,9.837492
801252333,3,1741275726161194593,0.020638095,-0.3281158,9.78485
801252343,3,1741275726171178603,0.052342996,0.023330022,9.329316
801252353,3,1741275726181162562,-0.24855445,0.6583253,8.758329
801252363,3,1741275726191147353,-0.7926225,1.2646067,8.184649
801252373,3,1741275726201131364,-1.3824533,1.6896319,7.902596
801252383,3,1741275726211116155,-1.445564,1.3869399,8.495717
801252393,3,1741275726221100166,-0.81834537,0.5416752,9.865907
801252403,3,1741275726231084958,0.0011964113,-0.08315059,10.989038
801252413,3,1741275726241068968,0.5925227,-0.4322036,11.657832
801252423,3,1741275726251053760,0.75523466,-0.5189434,11.810374
801252433,3,1741275726261037770,0.48993045,-0.21505493,11.319846
801252443,3,1741275726271021728,-0.13968103,0.14745769,10.492527
801252453,3,1741275726281006520,-0.47347978,0.49441698,9.575478
801252463,3,1741275726290990530,-0.5395815,0.6891329,9.02124
801252473,3,1741275726300975322,-0.4749753,0.7797611,9.352048
801252483,3,1741275726310959333,-0.5461618,0.67208403,9.499805
801252493,3,1741275726320942458,-0.53300124,0.9484551,9.632009
801252503,3,1741275726330928447,-0.39332023,1.2915261,9.71127
801252513,3,1741275726340912562,-0.18993029,1.2376875,9.734601
801252523,3,1741275726350896520,0.8847462,0.86171526,9.768399
801252533,3,1741275726360881312,1.3854443,0.32961133,10.27478
801252543,3,1741275726370865322,0.61016977,0.32422748,10.953146
801252553,3,1741275726380850114,-0.16959131,0.7393822,11.35843
801252563,3,1741275726390834124,-0.86111706,1.1973087,11.398211
801252573,3,1741275726400818916,-1.2846466,1.6983058,11.143973
801252583,3,1741275726410802926,-1.4102699,2.2447667,10.496715
801252593,3,1741275726420786051,-1.2418749,2.3898315,10.119546
801252603,3,1741275726430771468,-1.0040882,2.4424736,10.065109
801252613,3,1741275726440756364,0.08793623,2.2274187,10.106385
801252623,3,1741275726450740374,0.7253244,1.6483557,9.689735
801252633,3,1741275726460725166,0.34426737,1.2786646,9.049356
801252643,3,1741275726470709176,0.33260235,1.3079767,8.292327
801252653,3,1741275726480693135,0.023928227,1.5834504,8.410473
801252663,3,1741275726490677926,-0.4214359,2.3712873,9.1510515
801252673,3,1741275726500661937,-1.183849,2.7559335,10.0932255
801252683,3,1741275726510646728,-1.5723835,2.7332017,11.030613
801252693,3,1741275726520629905,-1.4270196,2.3060827,11.277074
801252703,3,1741275726530615322,-0.86560357,1.6698911,10.874481
801252713,3,1741275726540599385,0.15672988,1.6657037,10.814661
801252723,3,1741275726550584176,0.2670988,1.6402799,10.0681
801252733,3,1741275726560568187,0.24795625,1.4297116,9.556335
801252743,3,1741275726570552978,0.43130627,1.6369898,9.559028
801252753,3,1741275726580536989,0.008374879,2.07697,9.740284
801252763,3,1741275726590521780,-0.43429732,2.2884357,9.982856
801252773,3,1741275726600505791,-0.9768698,2.6446671,9.537791
801252783,3,1741275726610489749,-1.498206,2.9817562,8.311469
801252793,3,1741275726620474541,-1.0932208,3.1498518,7.9393854
801252803,3,1741275726630458551,-0.2228316,2.888436,8.159824
801252813,3,1741275726640443343,0.5075775,2.696412,8.112865
801252823,3,1741275726650427353,0.51475596,2.7759733,7.98455
801252833,3,1741275726660412145,0.28863424,2.9162526,8.548059
801252843,3,1741275726670396155,0.111266255,2.655734,9.637094
801252853,3,1741275726680380947,0.10857433,2.4783661,10.837093
801252863,3,1741275726690364958,-0.14027923,2.4209383,11.548959
801252873,3,1741275726700348916,-1.4808581,2.251646,12.27189
801252883,3,1741275726710333708,-2.2205393,3.5853457,9.841082
801252892,3,1741275726720316885,-1.2855439,4.328317,8.855537
801252902,3,1741275726730302301,-0.18514465,4.705187,8.320742
801252912,3,1741275726740286364,-0.19202402,4.513761,7.6977105
801252922,3,1741275726750271155,-0.24855445,4.12732,7.373782
801252932,3,1741275726760255166,-0.32662028,3.8234315,7.669296
801252942,3,1741275726770239958,-0.068793654,3.4073794,8.169993
801252952,3,1741275726780223968,0.25872394,3.1914272,8.646764
801252962,3,1741275726790208760,0.37208393,3.545266,9.242577
801252972,3,1741275726800192770,0.27188447,3.8697925,9.945169
801252982,3,1741275726810177562,0.08644072,4.0414777,10.5029955
801252992,3,1741275726820160739,-0.0317049,3.9861434,10.820643
801253002,3,1741275726830146155,-0.064008005,3.7890346,10.444073
801253012,3,1741275726840130218,-0.26739794,3.824927,9.846465
801253022,3,1741275726850115010,-0.46929234,4.0833516,9.369396
801253032,3,1741275726860099020,-0.49950173,4.28405,9.016156
801253042,3,1741275726870082978,-0.21834506,4.2780676,8.959625
801253052,3,1741275726880067770,0.12083755,4.2352962,8.781659
801253062,3,1741275726890051780,0.11395818,4.141677,8.510672
801253072,3,1741275726900036572,-0.23659034,3.9963129,8.344969
801253082,3,1741275726910020583,-0.8132606,3.696612,7.821838
801253092,3,1741275726920003708,-1.0651052,3.293122,6.9816585
801253102,3,1741275726929989697,-0.97477615,3.3918262,6.456434
801253112,3,1741275726939973812,-0.67058855,3.9023945,6.8778696
801253122,3,1741275726949957770,-0.32243285,4.386343,7.9504523
801253132,3,1741275726959942562,-0.13369897,4.7602215,9.160623
801253142,3,1741275726969926572,-0.4325027,5.023133,9.882956
801253152,3,1741275726979911364,-0.7498508,4.98754,10.375279
801253162,3,1741275726989895374,-1.0851451,4.764409,10.571192
801253172,3,1741275726999880166,-1.1368898,4.319942,10.527522
801253182,3,1741275727009864176,-1.0217353,3.9421754,10.371092
801253192,3,1741275727019848968,-1.2807583,4.1757746,10.065109
801253202,3,1741275727029832978,-1.5798612,4.538586,9.864411
801253212,3,1741275727039817770,-1.5320047,4.6758747,10.0932255
801253222,3,1741275727049801780,-1.2849457,4.6692944,10.567602
801253232,3,1741275727059785739,0.401396,4.8212385,10.770992
801253242,3,1741275727069770530,0.8709874,4.8086762,10.220942
801253252,3,1741275727079754541,0.54436713,4.06062,9.427721
801253262,3,1741275727089739333,0.054735817,3.461517,8.789435
801253272,3,1741275727099723343,-0.8895318,3.775276,8.410473
801253282,3,1741275727109708135,-1.8984057,4.508676,8.263613
801253292,3,1741275727119691312,-2.6389842,5.171189,8.251051
801253302,3,1741275727129676416,-2.713461,5.3647084,8.688937
801253312,3,1741275727139661312,-2.4711876,5.078467,9.538389
801253322,3,1741275727149645322,-2.2181466,4.4608197,9.82164
801253332,3,1741275727159629280,-1.8649062,4.1234317,9.503694
801253342,3,1741275727169614072,-1.6917256,4.045366,8.771191
801253352,3,1741275727179598083,-1.6603198,4.4485564,8.0677
801253362,3,1741275727189582874,-1.2439687,4.8936214,7.815258
801253372,3,1741275727199566885,-0.7432705,5.209175,8.079665
801253382,3,1741275727209551676,-0.63948184,5.499305,8.027621
801253392,3,1741275727219535687,-0.4941179,5.5456657,7.834101
801253402,3,1741275727229520478,-0.122931264,5.605486,7.6328053
801253412,3,1741275727239504489,-0.17497516,5.2959146,7.769196
801253422,3,1741275727249489280,-0.25872394,4.903791,8.048259
801253432,3,1741275727259473291,-0.31375888,4.8454657,8.183753
801253442,3,1741275727269457249,-0.6089734,5.1568317,8.009675
801253452,3,1741275727279442041,-0.8001001,5.3832526,7.7416787
801253462,3,1741275727289426051,-0.75493556,5.2313085,7.643872
801253472,3,1741275727299410843,-0.75463647,5.00758,7.8373914
801253482,3,1741275727309394853,-0.8542377,4.955835,8.227422
801253492,3,1741275727319377978,-0.86081797,5.02074,8.776574
801253502,3,1741275727329363968,-0.6583253,5.1678987,9.231809
801253512,3,1741275727339348083,-0.2976073,5.330312,9.480962
801253522,3,1741275727349332874,-0.023629123,5.2722855,9.292826
801253531,3,1741275727359316885,-0.51206404,5.0365925,8.853444
801253541,3,1741275727369300843,-1.1264212,4.7895336,8.757133
801253551,3,1741275727379285635,-1.1581261,4.67737,8.385946
801253561,3,1741275727389269645,-0.73011,4.9286165,7.603792
801253571,3,1741275727399254437,-0.43818563,5.3593245,7.190731
801253581,3,1741275727409238447,-0.6580262,5.8265233,7.225128
801253591,3,1741275727419223239,-0.70319074,5.8914285,7.5104723
801253601,3,1741275727429207249,-0.96729857,5.7188463,8.106584
801253611,3,1741275727439192041,-1.2843475,5.5914283,8.866604
801253621,3,1741275727449176051,-1.2765709,5.599205,9.282657
801253631,3,1741275727459160843,-0.9819546,5.535496,9.510274
801253641,3,1741275727469144853,-0.95832545,5.6279187,9.670592
801253651,3,1741275727479128812,-0.61824554,5.890232,9.103793
801253661,3,1741275727489113603,0.15044872,6.15434,7.7126656
801253671,3,1741275727499097614,-0.0056829536,5.9491553,7.428817
801253681,3,1741275727509082405,-0.6795616,5.446962,7.199405
801253691,3,1741275727519066416,-0.9296116,5.51426,7.3788667
801253701,3,1741275727529051208,-0.5916254,5.7667027,7.6348987
801253711,3,1741275727539035218,-0.5458627,5.825626,7.998608
801253721,3,1741275727549020010,-0.6329016,5.7876396,7.9716887
801253731,3,1741275727559004020,-0.5602196,5.7574306,7.4186473
801253741,3,1741275727568988812,-0.45074797,5.907879,6.559923
801253751,3,1741275727578972822,-0.35503507,6.020043,6.0338016
801253761,3,1741275727588956780,-0.2623132,6.001797,6.2512493
801253771,3,1741275727598941572,-0.093918286,5.773881,6.803692
801253781,3,1741275727608925583,-0.2623132,5.6279187,7.8317084
801253791,3,1741275727618908708,-0.28175488,5.9724855,8.643773
801253801,3,1741275727628894489,-0.37836507,6.862017,9.166306
801253811,3,1741275727638878603,-0.39780676,7.4192457,9.556335
801253821,3,1741275727648863395,-0.55752766,7.478468,9.693923
801253831,3,1741275727658847405,-0.55752766,7.3585277,9.239586
801253841,3,1741275727668832197,-0.12831512,6.962815,7.925029
801253851,3,1741275727678816208,-0.026021946,6.6367927,7.0079794
801253861,3,1741275727688800999,-0.055932228,6.471688,6.174978
801253871,3,1741275727698785010,0.4339982,6.774679,5.5079784
801253881,3,1741275727708769801,0.5488537,7.2789664,5.3799624
801253891,3,1741275727718752978,0.34396824,7.482057,5.834898
801253901,3,1741275727728738395,0.32033914,7.4327054,6.268298
801253911,3,1741275727738722458,0.23718855,7.3974113,6.285048
801253921,3,1741275727748707249,0.24047868,7.402795,6.176174
801253931,3,1741275727758691260,0.4749753,7.4883385,6.1211395
801253941,3,1741275727768676051,0.84137625,7.5699935,6.291628
801253951,3,1741275727778660062,1.5080764,7.6250286,6.719644
801253961,3,1741275727788644020,1.8981066,7.609176,7.1416783
801253971,3,1741275727798628812,1.7174485,7.5104723,7.557431
801253981,3,1741275727808612822,1.2586247,7.4823565,7.7679996
801253991,3,1741275727818595947,0.90358967,7.4246297,7.5586276
801254001,3,1741275727828581885,0.3394817,7.554141,6.669694
801254011,3,1741275727838566051,-0.60358953,7.776973,5.3626146
801254021,3,1741275727848550843,-1.1443675,8.145468,4.584349
801254031,3,1741275727858534853,-0.43609193,8.030911,4.293621
801254041,3,1741275727868519645,0.3149553,7.5140615,4.401298
801254051,3,1741275727878503655,0.87248296,7.3513494,5.4236317
801254061,3,1741275727888488447,0.88235337,7.530512,6.672386
801254071,3,1741275727898472458,0.74865437,8.145468,6.7633133
801254081,3,1741275727908456416,0.7686943,8.672786,6.652645
801254091,3,1741275727918441208,1.061815,8.585747,6.974779
801254101,3,1741275727928425218,0.52552366,8.082656,6.7495546
801254111,3,1741275727938410010,-0.16959131,7.615756,5.870192
801254121,3,1741275727948394020,-0.24436702,7.556235,4.9567323
801254131,3,1741275727958378812,0.21206391,7.684849,4.41416
801254141,3,1741275727968362822,0.9212367,7.8335032,4.551448
801254151,3,1741275727978347614,0.9520443,7.816155,4.9546385
801254161,3,1741275727988331624,0.6475576,7.7356963,5.4173503
801254170,3,1741275727998316416,0.22522444,8.088039,5.7248282
801254180,3,1741275728008300426,-0.28773692,8.537591,6.459724
801254190,3,1741275728018283551,-0.41754755,8.680861,7.3363943
801254200,3,1741275728028269124,-0.54317075,8.661719,7.7036924
801254210,3,1741275728038253239,-0.5820541,8.714062,7.7566338
801254220,3,1741275728048238030,-0.22701904,8.766704,7.3621173
801254230,3,1741275728058222041,0.2727818,8.717052,6.6849484
801254240,3,1741275728068206833,0.55064833,8.616554,5.854938
801254250,3,1741275728078190843,0.6008976,8.453544,5.058128
801254260,3,1741275728088175635,0.6511469,8.257032,4.1832523
801254270,3,1741275728098159645,0.48364928,8.368598,3.4417763
801254280,3,1741275728108144437,0.2228316,8.577671,3.0759735
801254290,3,1741275728118127614,-0.15523437,8.790632,3.1172497
801254300,3,1741275728128112874,-0.60717875,8.984152,3.3643086
801254310,3,1741275728138096937,-0.85483587,9.066106,3.650251
801254320,3,1741275728148081728,-0.87278205,9.042477,3.8015969
801254330,3,1741275728158065739,-0.87996054,9.076874,3.8324046
801254340,3,1741275728168050530,-0.72293156,9.096615,3.7812579
801254350,3,1741275728178034541,-0.22552353,9.046365,3.8339
801254360,3,1741275728188017666,0.8033902,9.143872,3.92393
801254370,3,1741275728198003083,2.1601207,9.5919285,4.0764723
801254380,3,1741275728207987978,2.592025,9.707382,4.45065
801254390,3,1741275728217971155,1.2287145,8.980264,4.9115677
801254400,3,1741275728227956260,-0.034695927,8.289934,4.814658
801254410,3,1741275728237941155,-0.70348984,8.350054,4.0307097
801254420,3,1741275728247925166,-0.75194454,8.776276,3.0415766
801254430,3,1741275728257909958,-0.31435707,9.103494,2.2088745
801254440,3,1741275728267893135,0.02751746,9.343674,1.5915262
801254450,3,1741275728277878551,0.27667013,9.425926,1.5110675
801254460,3,1741275728287862614,0.41694933,9.301499,1.9028922
801254470,3,1741275728297847405,0.6559325,9.293424,2.2492533
801254480,3,1741275728307831416,1.154537,9.384052,2.382354
801254490,3,1741275728317814541,0.81924266,9.307182,2.528017
801254500,3,1741275728327799801,-0.3278167,9.19472,2.9676983
801254510,3,1741275728337784697,-1.3483555,9.135498,3.0556345
801254520,3,1741275728347768708,-1.8287147,9.25484,2.899802
801254530,3,1741275728357753499,-1.6342978,9.573684,2.7966115
801254540,3,1741275728367737510,-0.53180486,9.529117,3.2174492
801254550,3,1741275728377722301,-1.2400804,9.480662,3.251846
801254560,3,1741275728387706312,-0.37537405,9.290732,2.5600212
801254570,3,1741275728397691103,0.7220342,9.268001,2.5387847
801254580,3,1741275728407675114,0.7465607,9.260822,2.6605196
801254590,3,1741275728417658239,0.3269194,9.336794,2.5818555
801254600,3,1741275728427643603,-0.0637089,9.560523,2.5725834
801254610,3,1741275728437628551,-0.40079778,9.711869,2.6709883
801254620,3,1741275728447612562,-0.80817586,9.779167,3.0254252
801254630,3,1741275728457597353,-1.4090735,9.787841,3.4429727
801254640,3,1741275728467581364,-0.77377903,9.824033,3.9146578
801254650,3,1741275728477565322,0.26051855,9.587442,4.109673
801254660,3,1741275728487550114,0.8153543,9.480962,3.7887356
801254670,3,1741275728497534124,1.1177473,9.502796,3.4627135
801254680,3,1741275728507518916,1.1901301,9.455837,3.2264223
801254690,3,1741275728517502093,1.1273186,9.440284,3.0969107
801254700,3,1741275728527487770,0.78634137,9.486046,3.0951161
801254710,3,1741275728537471937,0.104087785,9.639486,3.025126
801254720,3,1741275728547455895,-0.33290145,9.830014,3.144767
801254730,3,1741275728557440687,-0.7157531,9.916755,3.4743786
801254740,3,1741275728567423864,-0.60329044,9.395718,3.7103705
801254749,3,1741275728577230374,-0.37417763,9.330214,3.8880377
801254760,3,1741275728587389280,0.119042926,9.390931,3.6469607
801254770,3,1741275728597571572,0.58983076,9.464211,3.301497
801254780,3,1741275728607754749,1.1389836,9.513265,3.1019955
801254790,3,1741275728617737822,1.4826528,9.579067,2.856133
801254800,3,1741275728627849801,1.3046865,9.515358,2.632703
801254810,3,1741275728637902822,0.9302098,9.336196,2.6273193
801254820,3,1741275728647887666,0.6200402,9.346066,2.6279175
801254830,3,1741275728657871624,0.3080759,9.489635,2.7329025
801254840,3,1741275728667856468,0.027816564,9.463314,2.949154
801254850,3,1741275728677840426,-0.056530435,9.434601,3.2641091
801254860,3,1741275728687825270,-0.38524446,9.501899,2.9042885
801254870,3,1741275728697809228,-0.102592275,9.703494,2.7251258
801254880,3,1741275728707793187,0.063110694,9.909875,2.7693932
801254890,3,1741275728717776260,0.38883367,9.9191475,2.9219356
801254900,3,1741275728727762666,0.8350951,9.619147,3.1052856
801254910,3,1741275728737746624,1.3202399,9.190233,3.1477582
801254920,3,1741275728747731468,1.7186449,8.92822,3.0445678
801254930,3,1741275728757715426,1.7371893,9.005388,3.0089746
801254940,3,1741275728767699385,0.91405827,9.412467,3.3846476
801254950,3,1741275728777684228,0.2754737,9.907183,3.3236306
801254960,3,1741275728787668187,0.3382853,9.944272,2.9778678
801254970,3,1741275728797651260,0.41814575,9.857831,2.7708886
801254980,3,1741275728807457770,0.5282156,9.759426,2.8348966
801254990,3,1741275728817440947,0.68225354,9.497711,3.0753753
801255000,3,1741275728827552926,0.90538424,9.1414795,3.3230324
801255010,3,1741275728837735270,0.98644114,9.016455,3.37717
801255020,3,1741275728847918447,0.63948184,9.388538,3.0478578
801255030,3,1741275728858093239,0.3493521,9.902697,2.6691937
801255040,3,1741275728868130583,0.20548365,10.177273,2.382055
801255050,3,1741275728878115374,0.22402802,10.044471,2.225325
801255060,3,1741275728888099385,0.34636107,9.708878,2.1451654
801255070,3,1741275728898084176,0.4660022,9.360124,2.0198414
801255080,3,1741275728908068083,0.30837503,9.250652,1.8427725
801255090,3,1741275728918051155,-0.14596218,9.386146,1.6271194
801255100,3,1741275728928037405,-0.47706902,9.663713,1.3115659
801255110,3,1741275728938021416,-0.5769694,10.032507,0.94606227
801255120,3,1741275728948006208,-0.8557332,10.401002,0.56350976
801255130,3,1741275728957990218,-1.0959128,10.539785,0.3044867
801255140,3,1741275728967975010,-1.0453644,10.43839,0.115752794
801255150,3,1741275728977958968,-0.7713862,10.086944,0.0526421
801255160,3,1741275728987942874,-0.5288138,9.6942215,0.10857433
801255170,3,1741275728997925947,-0.4534399,9.443574,0.21565314
801255180,3,1741275729007732666,-0.5174479,9.326923,0.3155535
801255190,3,1741275729017715739,-0.4854439,9.447462,0.47228336
801255200,3,1741275729027851155,-0.5922236,9.706784,0.6840482
801255210,3,1741275729038033603,-0.66011995,9.963116,0.7896315
801255220,3,1741275729048216780,-0.69960153,10.082458,0.7899306
801255231,3,1741275729058399958,-0.4456632,10.124033,0.86081797
801255241,3,1741275729068583135,-0.30269206,10.251749,1.0046864
801255251,3,1741275729078766312,-0.37357944,10.3028965,1.3875381
801255261,3,1741275729088922770,-0.6041877,10.237094,1.8756739
801255271,3,1741275729098946103,-0.86859465,10.228419,2.28036
801255281,3,1741275729108929905,-0.90418786,10.213763,2.696711
801255291,3,1741275729118912978,-0.6131608,10.092029,3.083451
801255301,3,1741275729128899489,-0.29880372,9.965209,3.2222347
801255311,3,1741275729138883603,-0.13489537,9.886246,3.2063823
801255321,3,1741275729148868291,-0.23718855,9.839586,3.1698918
801255331,3,1741275729158852405,-0.35294133,9.9553385,2.9392836
801255341,3,1741275729168837093,-0.3293122,10.0779705,2.7523441
801255351,3,1741275729178820895,-0.122931264,10.129117,2.2447667
801255361,3,1741275729188803968,0.0637089,9.954741,1.6585252
801255371,3,1741275729198657614,0.17706887,9.728619,1.3878372
801255381,3,1741275729208793030,0.026919255,9.757033,1.43689
801255391,3,1741275729218776103,0.0059820567,9.900304,1.5134603
801255401,3,1741275729228806051,0.03888337,9.920941,1.6540387
801255411,3,1741275729238988343,0.058624156,9.778569,1.8873389
801255421,3,1741275729249112041,-0.09451649,9.692428,2.1053848
801255431,3,1741275729259118551,-0.5051847,9.695418,2.638087
801255441,3,1741275729269300843,-0.41605204,9.717253,3.280859
801255452,3,1741275729279483395,-0.12532409,9.72174,2.8923244
801255462,3,1741275729289666572,0.0032901312,9.722338,2.2908285
801255472,3,1741275729299796364,-0.023928227,9.756734,1.841277
801255482,3,1741275729309792562,-0.03798606,9.692428,1.5601203
801255492,3,1741275729319775635,-0.06849455,9.507881,1.3217354
801255502,3,1741275729329759333,-0.25872394,9.255139,1.1823535
801255512,3,1741275729339804124,-0.006879365,9.292228,1.16351
801255522,3,1741275729349986416,0.078963146,9.417552,0.8922237
801255532,3,1741275729360169020,0.0735793,9.519546,0.7746763
801255542,3,1741275729370283447,-0.11306087,9.519845,0.9837492
801255552,3,1741275729380269958,-0.2835495,9.502497,1.1817553
801255562,3,1741275729390205947,-0.10139586,9.559326,1.4548361
801255572,3,1741275729400130062,0.068793654,9.565009,1.9651057
801255582,3,1741275729410218603,0.07836494,9.5348,2.5232315
801255592,3,1741275729420225114,-0.023330022,9.549456,2.798107
801255603,3,1741275729430407405,-0.2015953,9.574581,2.7523441
801255613,3,1741275729440495947,-0.26051855,9.524631,2.4747767
801255623,3,1741275729450561051,-0.1468595,9.489336,2.1801605
801255633,3,1741275729460743343,-0.0032901312,9.570394,1.9761724
801255643,3,1741275729470831885,0.06520442,9.643374,1.9004993
801255653,3,1741275729480896989,0.13040884,9.67149,1.9519451
801255663,3,1741275729491079280,0.15732808,9.749556,2.091028
801255673,3,1741275729501210739,0.2745764,9.615258,2.3626132
801255683,3,1741275729511242093,-0.091525465,9.788738,2.566003
801255693,3,1741275729521248708,-0.89491564,10.202697,2.6084757
801255704,3,1741275729531430999,-1.7051853,10.459925,2.2743778
801255714,3,1741275729541613760,-1.6540387,10.262517,1.7763717
801255724,3,1741275729551731780,-1.2143575,9.890433,1.2002996
801255734,3,1741275729561751572,-0.9951151,9.74477,0.6649056
801255744,3,1741275729571735999,-0.85244304,9.722636,0.29222345
801255754,3,1741275729581719905,-0.68165535,9.707382,0.2228316
801255764,3,1741275729591620583,-0.71007013,9.760324,0.7109674
801255774,3,1741275729601509593,-1.015454,9.773185,1.6136597
801255784,3,1741275729611492666,-1.2251252,9.69153,2.513062
801255794,3,1741275729621534437,-1.1491531,9.456136,3.0433712
801255804,3,1741275729631716728,-1.0507482,9.37807,3.1217363
801255814,3,1741275729641899593,-1.0417751,9.456136,2.8779674
801255824,3,1741275729652082770,-0.89342016,9.620942,2.4388845
801255834,3,1741275729662265947,-0.5057829,9.682856,1.9103698
801255845,3,1741275729672449124,-0.14177474,9.649357,1.5858432
801255855,3,1741275729682632301,0.11784652,9.62154,1.4446666
801255865,3,1741275729692710635,0.13100705,9.631111,1.3603196
801255875,3,1741275729702707718,0.068793654,9.552447,1.4090735
801255885,3,1741275729712691103,-0.014656039,9.454341,1.5720844
801255895,3,1741275729722674280,0.019441685,9.39811,1.745265
801255905,3,1741275729732797978,-0.02841477,9.474979,1.7024933
801255915,3,1741275729742980895,-0.43998027,9.68465,1.3818551
801255925,3,1741275729753160322,-1.015155,9.826724,1.0253245
801255935,3,1741275729763201312,-1.3480564,9.848858,0.83001035
801255945,3,1741275729773184645,-1.410569,9.716953,1.0396814
801255955,3,1741275729783061780,-1.2879368,9.613763,1.4751751
801255965,3,1741275729792986103,-0.94785684,9.531211,1.7919251
801255975,3,1741275729803098083,-0.6891329,9.339486,1.7835501
801255985,3,1741275729813128030,-0.60807604,9.189635,1.7216359
801255995,3,1741275729823109541,-0.6149554,9.176774,1.643271
801256005,3,1741275729833231937,-0.8285148,9.223733,1.4057833
801256016,3,1741275729843414228,-1.1066805,9.38495,1.0507482
801256026,3,1741275729853597197,-1.2337992,9.475877,0.87996054
801256036,3,1741275729863631416,-1.1039885,9.525827,0.96759766
801256046,3,1741275729873617093,-0.85214394,9.620045,1.1306087
801256056,3,1741275729883601260,-0.5901299,9.716355,1.3441681
801256066,3,1741275729893585895,-0.34516466,9.880862,1.6660028
801256076,3,1741275729903570062,-0.25663024,9.980463,1.9468603
801256086,3,1741275729913553343,-0.29132617,10.104292,2.1260228
801256096,3,1741275729923538291,-0.4319045,10.232607,2.158326
801256106,3,1741275729933523291,-0.5703891,10.289436,2.0524435
801256116,3,1741275729943506572,-0.5159524,10.310075,1.9573289
801256126,3,1741275729953491520,-0.43639103,10.398908,2.0180469
801256136,3,1741275729963476572,-0.37447673,10.456037,2.079961
801256146,3,1741275729973460062,-0.3580261,10.455139,2.1224337
801256156,3,1741275729983337197,-0.35174492,10.312468,2.1343977
801256166,3,1741275729993425739,-0.2727818,10.19821,2.103291
801256176,3,1741275730003608030,-0.21296121,10.276875,1.9426728
801256186,3,1741275730013614541,-0.23060828,10.407582,1.7380866
801256196,3,1741275730023679645,-0.31345975,10.463814,1.5867405
801256206,3,1741275730033861937,-0.3472584,10.523634,1.5418751
801256216,3,1741275730044045010,-0.27038896,10.520044,1.7183458
801256226,3,1741275730054228187,-0.18574286,10.486844,2.0542383
801256237,3,1741275730064411364,-0.18125631,10.453943,2.3482563
801256247,3,1741275730074472666,-0.27876383,10.367203,2.5004997
801256257,3,1741275730084463812,-0.453739,10.2158575,2.4553351
801256267,3,1741275730094448551,-0.54735816,10.099805,2.3231318
801256277,3,1741275730104432614,-0.63200426,10.085149,2.2295125
801256287,3,1741275730114417353,-0.66131634,10.051351,2.0192432
801256297,3,1741275730124401416,-0.5285147,9.969397,1.7425731
801256307,3,1741275730134386155,-0.46271208,9.916156,1.4380864
801256317,3,1741275730144370218,-0.3610171,9.880563,1.1270195
801256327,3,1741275730154354176,-0.31166515,9.92483,0.64277196
801256337,3,1741275730164338916,-0.21385853,9.89821,0.23868406
801256346,3,1741275730174322197,-0.049351968,9.969695,0.26620153
801256356,3,1741275730184164020,0.21565314,10.010373,0.4142574
801256366,3,1741275730194123760,-0.02213361,10.212268,0.85094756
801256376,3,1741275730204259176,-0.41724846,10.360324,1.3268201
801256387,3,1741275730214441468,-0.12083755,10.179666,1.7288144
801256397,3,1741275730224424541,0.20189442,10.025628,1.7455641
801256407,3,1741275730234559958,0.43579283,10.079167,1.4234303
801256417,3,1741275730244742249,0.503091,10.019346,1.0686945
801256427,3,1741275730254925426,0.26739794,10.092627,0.8569296
801256437,3,1741275730265108603,-0.115752794,10.237094,0.9233304
801256447,3,1741275730275291780,-0.4235296,10.265209,0.9418748
801256457,3,1741275730285326208,-0.5808577,10.152746,0.92213404
801256467,3,1741275730295311051,-0.6466603,10.0163555,0.9616156
801256477,3,1741275730305295010,-0.6430711,9.962816,0.9768698
801256487,3,1741275730315279853,-0.5165506,9.921241,0.8488538
801256497,3,1741275730325263812,-0.27876383,9.964611,0.901795
801256507,3,1741275730335248655,-0.12921242,10.087841,1.0935199
801256517,3,1741275730345232614,-0.102592275,10.123434,1.442872
801256527,3,1741275730355217458,-0.0735793,10.191031,1.843969
801256537,3,1741275730365200530,0.03888337,10.255937,2.2091734
801256547,3,1741275730375018812,0.085244305,10.178768,2.5588248
801256557,3,1741275730385002093,0.2527419,9.994821,2.8809586
801256567,3,1741275730395154333,0.44656053,9.835697,3.0107691
801256578,3,1741275730405336624,0.4671986,9.806385,3.0143583
801256588,3,1741275730415519020,0.32213375,9.731909,2.906083
801256598,3,1741275730425702197,0.16719848,9.563514,2.6748767
801256608,3,1741275730435861833,0.15164514,9.414262,2.3808584
801256618,3,1741275730445844905,0.111864455,9.314062,2.1547368
801256628,3,1741275730456027197,0.11844472,9.275477,2.0575283
801256638,3,1741275730466190218,0.23838496,9.264411,2.1774685
801256648,3,1741275730476204645,0.08584251,9.265009,2.5235305
801256658,3,1741275730486188708,-0.12083755,9.216854,2.7825537
801256668,3,1741275730496173447,-0.12502499,9.124132,2.6970103
801256678,3,1741275730506157510,-0.13100705,9.126525,2.2142582
801256688,3,1741275730516142145,-0.049351968,9.059825,1.7195421
801256698,3,1741275730526125218,0.029312078,9.029915,1.4001004
801256708,3,1741275730536108291,0.038285162,9.223733,1.029811
801256718,3,1741275730546290999,0.012562319,9.362516,0.8961121
801256729,3,1741275730556402978,-0.14207384,9.404092,1.3127624
801256739,3,1741275730566421208,-0.48933223,9.385847,2.0907288
801256749,3,1741275730576603499,-1.0543375,9.309277,3.0227332
801256759,3,1741275730586785791,-1.3316058,9.269496,3.5569308
801256769,3,1741275730596968395,-1.1632109,9.26142,3.5359936
801256779,3,1741275730607151572,-0.83688974,9.373882,3.1624143
801256790,3,1741275730617334749,-0.48873404,9.463016,2.635694
801256800,3,1741275730627517926,-0.38494533,9.61137,2.2800608
801256810,3,1741275730637701103,-0.35682967,9.738489,2.0386848
801256820,3,1741275730647884280,-0.4211368,9.762716,1.9767706
801256830,3,1741275730658067458,-0.421735,9.642178,2.1544378
801256840,3,1741275730668207510,-0.5557331,9.520742,2.5241287
801256850,3,1741275730678241624,-0.71395844,9.41815,2.3192434
801256860,3,1741275730688225843,-0.6556334,9.276375,2.231008
801256870,3,1741275730698209541,-0.63888365,9.230613,2.1574287
801256880,3,1741275730708194958,-0.67088765,9.374182,1.9043877
801256890,3,1741275730718179489,-0.538086,9.47797,1.6495521
801256900,3,1741275730728163760,-0.3269194,9.556335,1.3929219
801256910,3,1741275730738148291,-0.16600206,9.661919,1.3725829
801256920,3,1741275730748131937,-0.038285162,9.740284,1.463211
801256930,3,1741275730758067926,0.13848461,9.7399845,1.6166508
801256940,3,1741275730767992041,0.24616162,9.734002,1.765604
801256950,3,1741275730778174333,0.29192436,9.770792,1.7551354
801256961,3,1741275730788357041,0.15104693,9.843474,1.5358931
801256971,3,1741275730798540218,0.010468599,9.886246,1.2711871
801256981,3,1741275730808723395,-0.10378868,9.839586,1.2335001
801256991,3,1741275730818906572,-0.19890338,9.794122,1.445564
801257001,3,1741275730829083916,-0.27696922,9.783055,2.1092732
801257011,3,1741275730839166780,-0.3589234,9.826126,2.6593232
801257021,3,1741275730849151155,-0.20039889,9.887741,2.6216364
801257031,3,1741275730859135583,-0.030508488,9.973883,2.399702
801257041,3,1741275730869119958,-0.035294134,10.04477,2.184049
801257051,3,1741275730879104385,0.011365907,10.019346,1.89362
801257061,3,1741275730889088760,0.037686955,9.906884,1.9028922
801257071,3,1741275730899073187,-0.13519448,9.710972,2.193321
801257081,3,1741275730909056728,-0.18604197,9.609277,2.5875385
801257091,3,1741275730919041260,-0.2961118,9.693624,2.9790642
801257101,3,1741275730929026624,-0.32841492,9.799207,3.0903304
801257111,3,1741275730939010166,-0.22761725,9.89163,2.8528428
801257121,3,1741275730948934385,-0.10887343,9.927821,2.4367907
801257131,3,1741275730958811728,0.023629123,9.91466,2.152344
801257141,3,1741275730968876833,-0.03888337,9.899107,2.14696
801257151,3,1741275730979059124,-0.11335997,9.8886385,2.1020947
801257161,3,1741275730989241416,-0.14297116,9.900304,2.283052
801257172,3,1741275730999424228,-0.20428723,10.000204,2.768795
801257182,3,1741275731009607405,-0.3281158,10.199407,3.2802608
801257192,3,1741275731019790583,-0.5344968,10.249955,3.8135612
801257202,3,1741275731029967510,-0.6131608,10.191629,3.958925
801257212,3,1741275731040029645,-0.5925227,10.150951,3.723232
801257222,3,1741275731050013968,-0.67118675,10.240383,3.3376884
801257232,3,1741275731059998447,-0.6972087,10.313066,3.0065815
801257242,3,1741275731069982770,-0.74865437,10.289436,2.751746
801257252,3,1741275731079967249,-0.8461619,10.337892,2.3509483
801257262,3,1741275731089951572,-0.8380861,10.593624,1.9743778
801257272,3,1741275731099936051,-0.7046863,10.936396,1.8340986
801257282,3,1741275731109920374,-0.549751,11.22174,2.0231316
801257292,3,1741275731119904853,-0.34157544,11.317154,2.4622145
801257302,3,1741275731129889176,-0.14416756,11.289337,2.9416764
801257312,3,1741275731139872614,-0.033499517,11.035997,3.4334013
801257322,3,1741275731149855687,0.010169496,10.624731,3.952943
801257332,3,1741275731159841208,-0.0071784677,10.18146,4.4838505
801257342,3,1741275731169943291,-0.15643078,9.885947,4.6986065
801257352,3,1741275731180125583,-0.47228336,9.606286,4.625027
801257362,3,1741275731190308447,-0.72352976,9.240782,4.1291146
801257373,3,1741275731200366155,-0.52522457,8.92463,3.2916267
801257383,3,1741275731210351989,-0.40289152,8.860323,2.644069
801257393,3,1741275731220336520,-0.42382872,8.951849,2.2229323
801257402,3,1741275731230320791,-0.29940194,8.958429,2.0051854
801257412,3,1741275731240305322,-0.2330011,8.99133,2.0964117
801257422,3,1741275731250289593,-0.24376881,9.142377,2.4346972
801257432,3,1741275731260274124,-0.34576288,9.398708,2.7649066
801257442,3,1741275731270258395,-0.36490545,9.498011,3.0840492
801257452,3,1741275731280242926,-0.47946185,9.535697,3.487838
801257462,3,1741275731290227197,-0.22313072,9.343972,3.7800615
801257472,3,1741275731300211728,-0.006879365,9.183952,3.862614
801257482,3,1741275731310195999,-0.18634106,9.244969,3.7211382
801257492,3,1741275731320180530,-0.31196424,9.367303,3.2081769
801257502,3,1741275731330164801,-0.13758731,9.611969,2.5061827
801257512,3,1741275731340148187,-0.2015953,9.972985,1.8484555
801257522,3,1741275731350132822,-0.42382872,10.082458,1.398904
801257532,3,1741275731360117458,-0.474078,10.001699,1.0378869
801257542,3,1741275731370102093,-0.6233303,9.889236,0.74117684
801257552,3,1741275731380086676,-0.69122666,9.732507,0.5706882
801257562,3,1741275731390071208,-0.65084773,9.349655,0.47946185
801257572,3,1741275731400056051,-0.5192425,8.903992,1.0651052
801257582,3,1741275731410040322,-0.6622137,8.848659,1.4910276
801257592,3,1741275731420024853,-0.34636107,8.811569,1.6103697
801257602,3,1741275731430009124,-0.11395818,8.953942,1.7883358
801257612,3,1741275731439992510,-0.1486541,9.293125,2.047359
801257622,3,1741275731449977145,-0.34247273,9.624531,2.3682961
801257632,3,1741275731459961155,-0.56560344,9.824033,2.7203403
801257642,3,1741275731469946312,-0.5940182,9.732806,2.5148566
801257652,3,1741275731479931208,-0.651446,9.635897,2.565704
801257662,3,1741275731489915739,-0.79710907,9.6529455,2.7221348
801257672,3,1741275731499900010,-0.7965108,9.550952,2.4104698
801257682,3,1741275731509884541,-0.7160522,9.282657,1.9274186
801257692,3,1741275731519868812,-0.6750751,9.351749,1.3923237
801257702,3,1741275731529853343,-0.73549384,9.512965,1.0423734
801257712,3,1741275731539837614,-0.93649095,9.693923,1.2646067
801257722,3,1741275731549822145,-1.2415758,9.840483,1.3842479
801257732,3,1741275731559806416,-1.3313067,9.794122,1.489233
801257742,3,1741275731569790947,-1.5903298,9.503992,1.637588
801257752,3,1741275731579775218,-1.5622141,9.235398,2.2884357
801257762,3,1741275731589759749,-1.3836497,9.029017,2.8956144
801257772,3,1741275731599744020,-1.4647065,9.072088,2.9617162
801257782,3,1741275731609728551,-1.5547365,9.341579,2.295016
801257792,3,1741275731619712822,-1.4967105,9.452846,1.3689936
801257802,3,1741275731629697353,-1.326222,9.280862,0.68105716
801257812,3,1741275731639681624,-1.2376875,9.112167,0.45403808
801257822,3,1741275731649666155,-1.0953146,9.081061,0.72083783
801257832,3,1741275731659650426,-1.0510473,9.094521,1.5690935
801257842,3,1741275731669634958,-1.0764711,9.163613,2.379662
801257852,3,1741275731679619228,-0.97806627,9.290133,2.6757739
801257862,3,1741275731689603760,-1.2164512,9.7247305,2.4759731
801257872,3,1741275731699588030,-1.2774682,9.851251,2.123331
801257882,3,1741275731709572562,-1.1739786,9.606585,1.718944
801257892,3,1741275731719556833,-1.1835499,9.423235,1.3040884
801257902,3,1741275731729540218,-1.0707881,9.319147,0.831805
801257912,3,1741275731739525374,-0.96819586,9.211171,0.4743771
801257922,3,1741275731749510270,-0.8545368,9.330214,0.64905316
801257932,3,1741275731759494801,-0.8258229,9.517452,1.1362916
801257942,3,1741275731769479072,-1.0253245,9.735498,1.4766706
801257952,3,1741275731779463603,-1.2891332,10.042975,1.9094725
801257962,3,1741275731789447874,-1.4440684,10.233804,2.356033
801257972,3,1741275731799432405,-1.7057835,10.289138,2.4741786
801257982,3,1741275731809416676,-2.0201404,10.280763,2.1807587
801257992,3,1741275731819401208,-2.2405794,10.1853485,1.7967107
801258002,3,1741275731829385478,-2.2854447,10.027721,1.3666009
801258012,3,1741275731839370010,-2.2187448,9.855438,1.0468599
801258022,3,1741275731849354280,-2.0847468,9.766904,0.85154575
801258032,3,1741275731859338812,-1.9322042,9.827323,0.6735796
801258041,3,1741275731869323083,-1.6339988,9.896714,0.6122635
801258051,3,1741275731879307614,-1.4285151,9.996316,0.721436
801258061,3,1741275731889291885,-1.364208,10.152448,0.92243314
801258071,3,1741275731899276416,-1.6444674,10.232906,1.2933207
801258081,3,1741275731909261260,-2.032703,10.669895,1.5984055
801258091,3,1741275731919245530,-1.6106688,10.650154,2.3775685
801258101,3,1741275731929230062,-1.2191432,10.273584,2.7364917
801258111,3,1741275731939214333,-1.166202,10.030114,2.5612175
801258121,3,1741275731949198864,-1.1069796,9.768399,1.7841483
801258131,3,1741275731959183135,-1.0525428,9.468101,0.83359957
801258141,3,1741275731969167666,-0.9879367,9.300303,-0.051445685
801258151,3,1741275731979151937,-0.78035927,9.280264,-0.5069793
801258161,3,1741275731989136468,-0.8168498,9.388838,0.18155542
801258171,3,1741275731999120739,-0.7465607,9.756734,0.56111693
801258181,3,1741275732009105270,-0.3376871,9.863514,1.1228321
801258191,3,1741275732019089541,-0.19920248,9.853943,2.2770698
801258201,3,1741275732029074072,-0.2832504,9.792926,2.751447
801258211,3,1741275732039058343,-0.30897322,9.582357,2.6542385
801258221,3,1741275732049042874,-0.5279165,9.48814,2.321337
801258231,3,1741275732059027145,-1.0357931,9.647861,1.7694924
801258241,3,1741275732069011676,-1.3522439,9.706784,1.1991032
801258251,3,1741275732078995947,-1.259522,9.625728,0.8533404
801258261,3,1741275732088980478,-0.8635099,9.415757,1.0474582
801258271,3,1741275732098964749,-0.38823548,9.297313,1.3815559
801258281,3,1741275732108949280,-0.16271193,9.168997,1.6881363
801258291,3,1741275732118933551,-0.29162526,9.0544405,1.8397815
801258301,3,1741275732128916937,-0.6978069,9.126823,1.8343977
801258311,3,1741275732138902093,-1.2514462,9.433703,1.6163517
801258321,3,1741275732148886989,-1.6845472,9.656834,1.5239289
801258331,3,1741275732158871520,-1.5957136,9.604192,1.6384853
801258341,3,1741275732168855791,-1.4449657,9.56142,1.5014962
801258351,3,1741275732178840322,-1.5251254,9.413962,1.297209
801258361,3,1741275732188824593,-1.6719848,9.257831,1.2056835
801258371,3,1741275732198809124,-1.5637096,9.127123,1.5610176
801258381,3,1741275732208793395,-1.4844474,9.060722,2.0515463
801258391,3,1741275732218777926,-1.695614,9.097511,2.5710878
801258401,3,1741275732228762197,-1.8897316,9.14806,2.9775686
801258411,3,1741275732238746728,-2.138286,9.162118,3.1630125
801258421,3,1741275732248731572,-2.228017,9.093025,3.204887
801258431,3,1741275732258715843,-2.2115662,9.200403,3.0915267
801258441,3,1741275732268700374,-1.7835501,9.425328,2.554039
801258451,3,1741275732278684645,-1.3058829,9.2488575,2.39372
801258461,3,1741275732288669176,-0.72323066,9.132208,3.0487552
801258471,3,1741275732298653447,-0.37268212,9.101699,3.851248
801258481,3,1741275732308637978,-0.4621139,8.787043,4.1443686
801258491,3,1741275732318621676,-0.33409786,8.823533,4.455137
801258501,3,1741275732328606312,-0.6442675,8.971291,4.400999
801258511,3,1741275732338590895,-1.0390832,9.123833,3.9834516
801258521,3,1741275732348575426,-1.0749756,9.135199,3.37717
801258531,3,1741275732358560270,-0.8955139,9.086145,3.0502508
801258541,3,1741275732368544541,-0.7908279,9.199206,2.8085756
801258551,3,1741275732378529072,-0.7175477,9.312567,2.8869405
801258561,3,1741275732388513343,-0.67477596,9.272188,3.3544383
801258571,3,1741275732398497874,-0.82043904,9.1211405,3.8297126
801258581,3,1741275732408482145,-1.2382857,8.996116,4.2370906
801258591,3,1741275732418465530,-1.5137594,9.0347,4.351049
801258601,3,1741275732428450166,-1.6402799,9.17468,4.104887
801258611,3,1741275732438435322,-1.5604194,9.284451,3.6726837
801258621,3,1741275732448419593,-1.3360924,9.375677,3.3457642
801258631,3,1741275732458404124,-0.9822537,9.546764,2.9560332
801258641,3,1741275732468388968,-0.5952146,9.607482,2.6916263
801258651,3,1741275732478373239,-0.10079765,9.658628,2.4361925
801258661,3,1741275732488357770,-0.5054838,9.337991,2.7053852
801258671,3,1741275732498342041,-0.9209376,9.083753,3.3107693
801258680,3,1741275732508326572,-1.5511472,8.991031,4.005286
801258690,3,1741275732518310270,-1.7231314,9.0544405,4.0905304
801258700,3,1741275732528294905,-1.869991,9.208179,4.380361
801258710,3,1741275732538279489,-1.9031913,9.293723,4.8299127
801258720,3,1741275732548264020,-1.1700903,9.050254,5.050052
801258730,3,1741275732558248291,-0.27128628,8.608778,4.874479
801258740,3,1741275732568232822,0.25842485,8.240283,4.42403
801258750,3,1741275732578217666,0.33708888,8.124231,3.9188452
801258760,3,1741275732588201937,0.08973085,8.235796,3.5428731
801258770,3,1741275732598186468,-0.3397808,8.45474,3.2557342
801258780,3,1741275732608170739,-0.7372885,8.632706,3.1429725
801258790,3,1741275732618154124,-1.0073783,8.775677,3.196512
801258800,3,1741275732628138760,-1.0342976,8.807681,3.4028928
801258810,3,1741275732638123916,-0.84017986,8.904889,3.4863427
801258820,3,1741275732648108187,-0.3293122,8.906684,3.6137605
801258830,3,1741275732658092718,0.23330021,8.775079,3.95055
801258840,3,1741275732668077562,0.5844469,8.528618,4.4913282
801258850,3,1741275732678061833,0.8497511,8.184949,4.959424
801258860,3,1741275732688046364,1.1581261,7.880761,5.218746
801258870,3,1741275732698030635,1.2379866,7.797312,5.255835
801258880,3,1741275732708015166,1.1210374,7.969595,5.258527
801258890,3,1741275732717998864,1.0256236,8.384749,5.1759744
801258900,3,1741275732727983499,1.1437693,8.7347,4.9899325
801258910,3,1741275732737968083,1.1641082,8.82114,5.0015974
801258920,3,1741275732747952614,0.8171489,8.822038,5.083552
801258930,3,1741275732757937458,0.70289165,8.7418785,5.139185
801258940,3,1741275732767921728,0.6155536,8.844172,5.2642097
801258950,3,1741275732777906260,0.4989035,9.033803,5.2680984
801258960,3,1741275732787890530,0.15224335,9.109476,5.7227345
801258970,3,1741275732797875062,-0.4109673,9.393923,6.032904
801258980,3,1741275732807859333,-0.6017949,9.732507,5.5405807
801258990,3,1741275732817842718,-0.6795616,9.59492,5.0389853
801259000,3,1741275732827827666,-0.80817586,9.352647,4.755735
801259010,3,1741275732837812562,-0.9203394,9.211769,4.680062
801259020,3,1741275732847797093,-0.86171526,9.078669,4.601398
801259030,3,1741275732857781364,-0.52193445,9.055637,4.642674
801259040,3,1741275732867765895,-0.11784652,9.176774,4.7368917
801259050,3,1741275732877750166,0.119042926,9.413364,4.8789654
801259060,3,1741275732887734697,-0.052043892,9.617053,4.9782677
801259070,3,1741275732897719541,-0.4639085,9.748658,5.3096733
801259080,3,1741275732907703812,-0.75523466,9.79143,5.8247285
801259090,3,1741275732917688343,-0.8243274,9.811171,6.3065834
801259100,3,1741275732927672614,-0.76959157,9.782457,6.4402823
801259110,3,1741275732937657145,-0.7196414,9.647861,5.88096
801259120,3,1741275732947641416,-0.61764735,9.465109,5.4903316
801259130,3,1741275732957625947,-0.35563326,9.361021,4.811368
801259140,3,1741275732967610218,-0.18544376,9.290732,3.9128633
801259150,3,1741275732977594749,-0.08733802,9.12832,3.2045877
801259160,3,1741275732987579020,-0.15672988,9.055338,2.8582265
801259170,3,1741275732997563551,-0.34426737,9.175877,2.972783
801259180,3,1741275733007547822,-0.5940182,8.940483,3.7016966
801259190,3,1741275733017532353,-0.80937225,8.876474,4.680062
801259200,3,1741275733027517197,-1.1207383,8.952447,5.599504
801259210,3,1741275733037501468,-1.518545,9.055637,6.373283
801259220,3,1741275733047485999,-1.6429719,9.159426,6.759724
801259230,3,1741275733057470270,-1.3375878,9.154342,6.9185476
801259240,3,1741275733067454801,-0.90478605,9.0015,6.7322063
801259250,3,1741275733077439072,-0.7432705,8.723035,6.4498534
801259260,3,1741275733087423603,-0.8425727,8.503195,6.0379887
801259270,3,1741275733097407874,-1.0169497,8.438888,5.7000027
801259280,3,1741275733107392405,-1.1300105,8.401798,5.236094
801259290,3,1741275733117376103,-1.1626127,8.292027,4.7401814
801259300,3,1741275733127360739,-1.099502,8.090732,4.3740797
801259310,3,1741275733137345895,-0.96490574,7.9627156,4.1174498
801259320,3,1741275733147330166,-0.7004988,8.032107,4.013362
801259329,3,1741275733157314697,-0.61884373,8.11137,4.197609
801259339,3,1741275733167298968,-0.6263213,8.225627,4.679165
801259349,3,1741275733177283499,-0.76510507,8.319844,5.293223
801259359,3,1741275733187267770,-0.9445667,8.259127,5.723931
801259369,3,1741275733197252301,-1.1300105,8.12453,5.6724854
801259379,3,1741275733207237145,-1.2272189,8.019844,5.31745
801259389,3,1741275733217221416,-1.3390833,7.865806,4.859225
801259399,3,1741275733227205947,-1.4527425,7.815557,4.3405805
801259409,3,1741275733237190218,-1.2152548,7.8930244,3.7776687
801259419,3,1741275733247174749,-0.9607183,7.85444,3.4286158
801259429,3,1741275733257159020,-0.85154575,7.774879,3.6867416
801259439,3,1741275733267143551,-0.75344,7.7407813,4.5915275
801259449,3,1741275733277127822,-0.6966105,7.8281193,5.6039906
801259459,3,1741275733287112353,-0.70977104,7.9965143,6.2138615
801259469,3,1741275733297096624,-0.8775677,8.142776,6.401997
801259479,3,1741275733307081155,-1.07019,8.129017,6.1387863
801259489,3,1741275733317064853,-1.0369896,8.023134,5.643173
801259499,3,1741275733327049593,-0.9317053,8.043473,5.065007
801259509,3,1741275733337034489,-0.8210373,8.126624,4.607679
801259519,3,1741275733347019020,-0.70289165,8.187641,4.5448675
801259529,3,1741275733357003291,-0.23659034,7.9429746,4.8589253
801259539,3,1741275733366987822,0.26021945,7.5936227,5.3240304
801259549,3,1741275733376972666,0.20129621,7.718947,5.593821
801259559,3,1741275733386956937,-0.12532409,8.062616,5.762515
801259569,3,1741275733396941468,-0.51266223,8.403294,5.59412
801259579,3,1741275733406925739,-0.74386877,8.508878,5.2815576
801259589,3,1741275733416910270,-0.8877372,8.441579,4.9636116
801259599,3,1741275733426894541,-0.9173484,8.382357,4.699504
801259609,3,1741275733436879072,-0.74207413,8.293523,4.5741796
801259619,3,1741275733446863343,-0.6343971,8.373981,4.74078
801259629,3,1741275733456847874,-0.75583285,8.592627,5.267201
801259639,3,1741275733466832718,-0.80847496,8.536096,5.9437714
801259649,3,1741275733476816989,-0.7513463,8.22473,6.5479593
801259659,3,1741275733486801520,-0.49322057,7.804191,6.949056
801259669,3,1741275733496785791,-0.11934203,7.364809,7.0351977
801259679,3,1741275733506770322,0.15672988,7.0354967,6.8162546
801259689,3,1741275733516754020,0.3909274,7.0079794,6.3861446
801259699,3,1741275733526738760,0.465404,7.4099736,5.854938
801259709,3,1741275733536723655,0.18125631,8.084749,5.1900325
801259719,3,1741275733546708187,0.31615168,8.193623,4.9806604
801259729,3,1741275733556692458,0.27936205,8.378768,4.8239303
801259739,3,1741275733566676989,0.0529412,8.470891,4.915755
801259749,3,1741275733576661260,-0.14596218,8.3015995,5.0823555
801259759,3,1741275733586645791,-0.4235296,8.0150585,5.3757753
801259769,3,1741275733596630062,-0.49082774,7.6755767,5.63091
801259779,3,1741275733606614593,-0.13579269,7.4401827,5.9093747
801259789,3,1741275733616599437,0.3589234,7.4715886,6.3164535
801259799,3,1741275733626583708,0.72083783,7.5314093,7.010073
801259809,3,1741275733636568239,0.65682983,7.8346996,7.7533436
801259819,3,1741275733646552510,0.6200402,7.952845,8.443673
801259829,3,1741275733656537041,0.07477571,8.235198,9.292826
801259839,3,1741275733666521312,-0.41665024,8.315956,9.443872
801259849,3,1741275733676505843,-0.60598236,8.303393,8.933903
801259859,3,1741275733686490114,-0.42532423,8.385348,8.036295
801259869,3,1741275733696474645,-0.04127619,8.611171,7.3549385
801259879,3,1741275733706459489,0.37417763,8.673085,7.217052
801259889,3,1741275733716443187,0.43908295,8.763413,7.3992057
801259899,3,1741275733726427822,0.49920264,8.645268,7.3256264
801259909,3,1741275733736412405,0.631107,8.411071,7.082456
801259919,3,1741275733746396937,0.75972116,8.109276,6.801
801259929,3,1741275733756381780,0.80997044,7.899605,6.448358
801259939,3,1741275733766366051,0.6017949,7.9567337,6.1570315
801259949,3,1741275733776350583,0.123828575,8.1682,5.8689957
801259959,3,1741275733786334853,-0.18275183,8.311171,5.3440704
801259968,3,1741275733796319385,-0.077467635,8.72812,5.235496
801259978,3,1741275733806303655,0.07088737,9.089735,5.8860445
801259988,3,1741275733816287041,-0.067896344,9.062516,6.619744
801259998,3,1741275733826271937,-0.3361916,8.618349,6.8374906
801260008,3,1741275733836257145,-0.55812585,8.103293,6.2934227
801260018,3,1741275733846241676,-0.7393822,7.8753777,5.3709893
801260028,3,1741275733856225947,-0.69571316,7.9971123,4.5595236
801260038,3,1741275733866210478,-0.48394838,8.254939,3.9071803
801260048,3,1741275733876194749,-0.2856432,8.379665,3.4103706
801260058,3,1741275733886179280,-0.12861422,8.295917,3.2557342
801260068,3,1741275733896164124,-0.06699903,8.435597,3.5288153
801260078,3,1741275733906148395,-0.23090738,8.483752,4.0615172
801260088,3,1741275733916131780,-0.26021945,8.42782,4.604389
801260098,3,1741275733926116312,0.14925231,8.250154,5.0605206
801260108,3,1741275733936101780,0.8282157,8.052147,5.718248
801260118,3,1741275733946086051,0.42083767,8.002795,5.291428
801260128,3,1741275733956070583,0.3182454,7.949854,4.9956155
801260138,3,1741275733966055426,0.24137598,7.8634133,5.0009995
801260148,3,1741275733976039697,0.035593238,8.030911,4.9085765
801260158,3,1741275733986024228,-0.15104693,8.100004,4.8972106
801260168,3,1741275733996008499,-0.3281158,8.077571,4.9136615
801260178,3,1741275734005993030,-0.24436702,7.9076805,4.9088755
801260188,3,1741275734015976728,-0.111266255,7.7503524,4.894818
801260198,3,1741275734025961260,-0.09930214,7.835896,4.7572303
801260208,3,1741275734035946155,0.041575294,8.003095,4.5508494
801260218,3,1741275734045930687,0.29790643,8.094022,4.380361
801260228,3,1741275734055915530,0.46660042,8.007581,4.5095735
801260238,3,1741275734065899801,0.4103691,7.9313097,5.0386863
801260248,3,1741275734075884333,0.2536392,7.925328,5.659923
801260258,3,1741275734085868603,0.13310076,7.9797645,6.24108
801260268,3,1741275734095853135,0.15463616,8.062616,6.643373
801260278,3,1741275734105837405,0.21744776,8.114361,6.6963143
801260288,3,1741275734115820791,0.33738798,8.146664,6.4271216
801260298,3,1741275734125805947,0.32662028,8.112865,5.982954
801260308,3,1741275734135790270,0.20608185,8.044969,5.52084
801260318,3,1741275734145774905,0.18364914,7.719844,5.122136
801260328,3,1741275734155760062,0.025722843,7.42433,4.8448677
801260338,3,1741275734165744333,-0.232702,7.3372917,4.7189455
801260348,3,1741275734175728864,-0.33290145,7.416853,4.7988057
801260358,3,1741275734185713135,-0.33110684,7.5116687,4.8511486
801260368,3,1741275734195697666,-0.24496523,7.4913297,4.87418
801260378,3,1741275734205682510,-0.14057833,7.4291162,4.981857
801260388,3,1741275734215666780,-0.1585245,7.4916286,5.165506
801260398,3,1741275734225651312,-0.062512495,7.6052876,5.3123655
801260408,3,1741275734235635583,0.0951147,7.5933237,5.2944193
801260418,3,1741275734245620114,0.32632118,7.5571322,5.0602217
801260428,3,1741275734255604385,0.5174479,7.5311103,4.7913284
801260438,3,1741275734265588916,0.51146585,7.5903325,4.653143
801260448,3,1741275734275573760,0.42681974,7.7330046,4.5670013
801260458,3,1741275734285558030,0.47258246,7.8840513,4.5218368
801260468,3,1741275734295542562,0.47976094,8.072187,4.7162533
801260478,3,1741275734305526833,0.3574279,8.302496,5.255835
801260488,3,1741275734315510218,0.32961133,8.518449,6.026324
801260498,3,1741275734325495374,0.49441698,8.648559,6.6442704
801260508,3,1741275734335480270,0.6756733,8.721839,6.955337
801260518,3,1741275734345464801,0.7405786,8.743972,6.960721
801260528,3,1741275734355449072,0.76630145,8.721839,6.6678996
801260538,3,1741275734365433603,0.83030945,8.753544,6.3179493
801260548,3,1741275734375418447,0.86111706,8.723932,6.0547385
801260558,3,1741275734385402718,1.0654043,8.710174,6.109175
801260568,3,1741275734395387249,1.0007981,8.737093,6.3687963
801260578,3,1741275734405371520,0.7785647,8.696713,6.3714886
801260588,3,1741275734415356051,0.72771716,8.68804,6.2464633
801260598,3,1741275734425340322,0.5183452,8.797811,5.9602222
801260607,3,1741275734435324853,0.20608185,8.903095,5.8749776
801260617,3,1741275734445309697,0.0529412,8.905488,5.9784675
801260627,3,1741275734455293968,0.026620151,8.783454,5.997909
801260637,3,1741275734465278499,0.03589234,8.65783,5.8797636
801260647,3,1741275734475262770,0.012263216,8.665308,5.743971
801260657,3,1741275734485247301,0.12323037,8.749655,5.5094743
801260667,3,1741275734495231572,0.25573292,8.672786,5.406583
801260677,3,1741275734505216103,0.16510476,8.744869,5.4128637
801260687,3,1741275734515199801,-0.15284155,8.915059,5.459524
801260697,3,1741275734525184437,-0.42562333,8.9928255,5.408377
801260707,3,1741275734535169645,-0.40408793,8.969196,5.31416
801260717,3,1741275734545154176,-0.12592229,8.912367,5.1990056
801260727,3,1741275734555138447,0.3272185,8.823235,4.9956155
801260737,3,1741275734565122978,0.6472585,8.683554,4.933103
801260747,3,1741275734575107822,0.7848458,8.539984,5.067101
801260757,3,1741275734585092093,0.79800636,8.359924,5.165207
801260767,3,1741275734595076624,0.78035927,8.222037,5.1673007
801260777,3,1741275734605060895,0.73070824,8.19123,5.260022
801260787,3,1741275734615044280,0.57876396,8.205288,5.2127643
801260797,3,1741275734625029437,0.40677986,8.337193,5.083851
801260807,3,1741275734635014333,0.3499503,8.496614,4.9725847
801260817,3,1741275734644998864,0.4325027,8.551051,5.032405
801260827,3,1741275734654983708,0.62512493,8.493025,5.2399826
801260837,3,1741275734664967978,0.7728817,8.324032,5.4580283
801260847,3,1741275734674952510,0.71665037,8.158927,5.6350975
801260857,3,1741275734684936780,0.5841478,8.068,5.666503
801260867,3,1741275734694921312,0.4001996,8.155039,5.5205407
801260877,3,1741275734704905583,0.21954148,8.285747,5.096413
801260887,3,1741275734714888968,0.12532409,8.380861,4.6752763
801260897,3,1741275734724873708,0.11964113,8.387442,4.5332026
801260907,3,1741275734734859176,0.3074777,8.422137,4.6899323
801260917,3,1741275734744843447,0.3275176,8.498408,5.0859447
801260927,3,1741275734754827978,0.35682967,8.525328,5.9545393
801260937,3,1741275734764812822,0.38524446,8.482257,6.986145
801260947,3,1741275734774796520,0.36520454,8.411968,7.6399837
801260957,3,1741275734784781155,0.27696922,8.474779,7.731509
801260967,3,1741275734794765166,0.06969096,8.64138,7.503892
801260977,3,1741275734804630530,-0.10438689,8.807981,7.2583284
801260987,3,1741275734814543083,-0.1698904,8.860622,6.923632
801260997,3,1741275734824608187,-0.26949164,8.829216,6.4010997
801261007,3,1741275734834790478,-0.38344982,8.838788,5.966503
801261017,3,1741275734844973395,-0.40917268,8.8701935,5.750551
801261027,3,1741275734855156572,-0.2635096,8.843872,5.667999
801261037,3,1741275734865231624,-0.09990034,8.560622,5.6264234
801261047,3,1741275734875229124,0.12771691,8.249256,5.8680983
801261057,3,1741275734885213708,0.12771691,8.118548,5.81755
801261067,3,1741275734895198551,0.47138608,8.33121,5.8094745
801261077,3,1741275734905182770,0.86171526,8.553444,6.1238313
801261087,3,1741275734915167353,0.9921241,8.292925,6.4462643
801261097,3,1741275734925151572,0.8542377,8.09462,6.426523
801261107,3,1741275734935136155,0.5605187,8.464012,6.0140605
801261117,3,1741275734945119749,0.52911294,8.846864,5.785247
801261127,3,1741275734955104541,0.631107,8.941679,5.812465
801261137,3,1741275734965089645,0.8276175,8.779266,6.116952
801261147,3,1741275734975073864,1.000499,8.582157,6.495317
801261157,3,1741275734985058447,0.831805,8.477771,6.7935224
801261167,3,1741275734995043291,0.51206404,8.447861,6.7061844
801261177,3,1741275735005027510,0.28893334,8.382955,6.172286
801261187,3,1741275735015010843,0.2883351,8.373683,5.5205407
801261197,3,1741275735024995791,0.37627137,8.437391,4.966902
801261207,3,1741275735034981155,0.4408776,8.459227,4.6564326
801261217,3,1741275735044965374,0.50428736,8.419446,4.8858447
801261227,3,1741275735054949958,0.48125646,8.309376,5.4463634
801261237,3,1741275735064933551,0.21296121,8.20469,6.0571313
801261247,3,1741275735074918343,-0.026021946,8.149954,6.4184475
801261257,3,1741275735084903447,-0.29850462,8.125129,6.4642105
801261267,3,1741275735094887666,-0.56829536,8.105687,6.2662044
801261277,3,1741275735104872249,-0.721436,8.083254,5.8854465
801261287,3,1741275735114855843,-0.5626124,8.045866,5.5013986
801261297,3,1741275735124840478,-0.33529428,7.899306,5.267201
801261307,3,1741275735134825739,-0.19920248,7.687541,5.215456
801261317,3,1741275735144810322,-0.2416751,7.4853473,5.2752767
801261327,3,1741275735154795166,-0.26979074,7.391429,5.471787
801261337,3,1741275735164779385,-0.41455653,7.451549,5.779863
801261347,3,1741275735174763968,-0.69571316,7.513463,6.0661044
801261357,3,1741275735184748187,-1.038485,7.463812,6.2309103
801261367,3,1741275735194732770,-1.2690933,7.382456,6.5494547
801261377,3,1741275735204717614,-1.2092727,7.3052874,7.0489564
801261387,3,1741275735214701208,-1.0429716,7.1413794,7.4715886
801261397,3,1741275735224766416,-0.8003992,6.9523463,7.4249287
801261407,3,1741275735234948708,-0.65922266,6.8721867,6.768099
801261417,3,1741275735245131676,-0.7073782,6.957431,5.835197
801261427,3,1741275735255161833,-0.72083783,7.129415,5.191229
801261437,3,1741275735265194905,-0.65682983,7.1712894,5.0590253
801261447,3,1741275735275195999,-0.3400799,7.280462,5.3270216
801261457,3,1741275735285180843,-0.25124636,7.354041,6.3104715
801261467,3,1741275735295165010,-0.39391842,7.3085775,7.198209
801261477,3,1741275735305149645,-0.5739783,7.2083783,7.570592
801261487,3,1741275735315133135,-0.70378894,7.213164,7.6253276
801261497,3,1741275735325033916,-0.8673982,7.256833,7.6052876
801261507,3,1741275735335071676,-0.9529416,7.376773,7.450053
801261517,3,1741275735345238343,-1.0465608,7.553842,6.9173512
801261528,3,1741275735355420635,-0.9209376,7.6836524,6.1253266
801261538,3,1741275735365603760,-0.93649095,7.6369925,5.899504
801261548,3,1741275735375786937,-1.1279168,7.515258,6.2569323
801261558,3,1741275735385970114,-1.3214363,7.4452677,6.7618175
801261568,3,1741275735396153291,-1.4434702,7.3986077,6.9652076
801261579,3,1741275735406336468,-1.4994025,7.3546395,6.949654
801261589,3,1741275735416331312,-1.3677973,7.333104,6.9466634
801261599,3,1741275735426478447,-1.3208381,7.327122,6.812067
801261609,3,1741275735436660739,-1.4003994,7.3603225,6.485746
801261619,3,1741275735446692197,-1.3094722,7.4007015,6.2940207
801261629,3,1741275735456677562,-1.0755738,7.4647093,6.18096
801261639,3,1741275735466484072,-0.942473,7.500303,6.084948
801261649,3,1741275735476636312,-0.8324032,7.5514493,6.047859
801261659,3,1741275735486818187,-0.78634137,7.6088767,6.0565333
801261669,3,1741275735497000478,-0.83688974,7.670193,5.9491553
801261679,3,1741275735506983551,-0.84047896,7.726424,5.866005
801261689,3,1741275735516966624,-0.85244304,7.8164544,5.905187
801261699,3,1741275735527067093,-0.89461654,7.9034934,6.1603217
801261709,3,1741275735537249489,-0.83958167,7.912466,6.3792653
801261720,3,1741275735547432666,-0.6693921,7.8687973,6.4151573
801261730,3,1741275735557615843,-0.389731,7.876873,6.4085774
801261740,3,1741275735567799020,-0.08315059,7.967501,6.495018
801261750,3,1741275735577982197,0.047856454,8.048558,6.6281185
801261760,3,1741275735588153499,0.04516453,8.115856,6.6678996
801261770,3,1741275735598224176,-0.11515459,8.179565,6.576673
801261780,3,1741275735608208030,-0.42023948,8.210373,6.4010997
801261790,3,1741275735618191103,-0.74865437,8.263015,6.317052
801261800,3,1741275735628177405,-0.97537434,8.355437,6.2087765
801261810,3,1741275735638161468,-0.95413804,8.470293,5.939584
801261820,3,1741275735648146103,-0.76271224,8.531011,5.6246285
801261830,3,1741275735658129176,-0.47377887,8.433803,5.4900327
801261840,3,1741275735667959228,-0.2856432,8.273483,5.505885
801261850,3,1741275735678141520,-0.31256247,8.115557,5.660521
801261860,3,1741275735688288655,-0.31974092,8.059625,5.793921
801261870,3,1741275735698283447,-0.1911267,8.212168,5.742475
